Color,trials.thisRepN,trials.thisTrialN,trials.thisN,trials.thisIndex,date,frameRate,expName,session,participant,
"[-1, -1, -1]",0,0,0,0,2017_Jul_05_1740,59.9840158866,Calib,001,test,
"[-1, -1, -0.95]",0,1,1,1,2017_Jul_05_1740,59.9840158866,Calib,001,test,
"[-1, -1, -0.9]",0,2,2,2,2017_Jul_05_1740,59.9840158866,Calib,001,test,
"[-1, -1, -0.85]",0,3,3,3,2017_Jul_05_1740,59.9840158866,Calib,001,test,
"[-1, -1, -0.8]",0,4,4,4,2017_Jul_05_1740,59.9840158866,Calib,001,test,
"[-1, -1, -0.75]",0,5,5,5,2017_Jul_05_1740,59.9840158866,Calib,001,test,
"[-1, -1, -0.7]",0,6,6,6,2017_Jul_05_1740,59.9840158866,Calib,001,test,
"[-1, -1, -0.65]",0,7,7,7,2017_Jul_05_1740,59.9840158866,Calib,001,test,
"[-1, -1, -0.6]",0,8,8,8,2017_Jul_05_1740,59.9840158866,Calib,001,test,
"[-1, -1, -0.55]",0,9,9,9,2017_Jul_05_1740,59.9840158866,Calib,001,test,
"[-1, -1, -0.5]",0,10,10,10,2017_Jul_05_1740,59.9840158866,Calib,001,test,
"[-1, -1, -0.45]",0,11,11,11,2017_Jul_05_1740,59.9840158866,Calib,001,test,
"[-1, -1, -0.4]",0,12,12,12,2017_Jul_05_1740,59.9840158866,Calib,001,test,
"[-1, -1, -0.35]",0,13,13,13,2017_Jul_05_1740,59.9840158866,Calib,001,test,
"[-1, -1, -0.3]",0,14,14,14,2017_Jul_05_1740,59.9840158866,Calib,001,test,
"[-1, -1, -0.25]",0,15,15,15,2017_Jul_05_1740,59.9840158866,Calib,001,test,
"[-1, -1, -0.2]",0,16,16,16,2017_Jul_05_1740,59.9840158866,Calib,001,test,
"[-1, -1, -0.15]",0,17,17,17,2017_Jul_05_1740,59.9840158866,Calib,001,test,
"[-1, -1, -0.1]",0,18,18,18,2017_Jul_05_1740,59.9840158866,Calib,001,test,
"[-1, -1, -0.05]",0,19,19,19,2017_Jul_05_1740,59.9840158866,Calib,001,test,
"[-1, -1, 0]",0,20,20,20,2017_Jul_05_1740,59.9840158866,Calib,001,test,
"[-1, -1, 0.05]",0,21,21,21,2017_Jul_05_1740,59.9840158866,Calib,001,test,
"[-1, -1, 0.1]",0,22,22,22,2017_Jul_05_1740,59.9840158866,Calib,001,test,
"[-1, -1, 0.15]",0,23,23,23,2017_Jul_05_1740,59.9840158866,Calib,001,test,
"[-1, -1, 0.2]",0,24,24,24,2017_Jul_05_1740,59.9840158866,Calib,001,test,
"[-1, -1, 0.25]",0,25,25,25,2017_Jul_05_1740,59.9840158866,Calib,001,test,
"[-1, -1, 0.3]",0,26,26,26,2017_Jul_05_1740,59.9840158866,Calib,001,test,
"[-1, -1, 0.35]",0,27,27,27,2017_Jul_05_1740,59.9840158866,Calib,001,test,
"[-1, -1, 0.4]",0,28,28,28,2017_Jul_05_1740,59.9840158866,Calib,001,test,
"[-1, -1, 0.45]",0,29,29,29,2017_Jul_05_1740,59.9840158866,Calib,001,test,
"[-1, -1, 0.5]",0,30,30,30,2017_Jul_05_1740,59.9840158866,Calib,001,test,
"[-1, -1, 0.55]",0,31,31,31,2017_Jul_05_1740,59.9840158866,Calib,001,test,
"[-1, -1, 0.6]",0,32,32,32,2017_Jul_05_1740,59.9840158866,Calib,001,test,
"[-1, -1, 0.65]",0,33,33,33,2017_Jul_05_1740,59.9840158866,Calib,001,test,
"[-1, -1, 0.7]",0,34,34,34,2017_Jul_05_1740,59.9840158866,Calib,001,test,
"[-1, -1, 0.75]",0,35,35,35,2017_Jul_05_1740,59.9840158866,Calib,001,test,
"[-1, -1, 0.8]",0,36,36,36,2017_Jul_05_1740,59.9840158866,Calib,001,test,
"[-1, -1, 0.85]",0,37,37,37,2017_Jul_05_1740,59.9840158866,Calib,001,test,
"[-1, -1, 0.9]",0,38,38,38,2017_Jul_05_1740,59.9840158866,Calib,001,test,
"[-1, -1, 0.95]",0,39,39,39,2017_Jul_05_1740,59.9840158866,Calib,001,test,
"[-1, -1, 1]",0,40,40,40,2017_Jul_05_1740,59.9840158866,Calib,001,test,
"[-1, -1, -1]",1,0,41,0,2017_Jul_05_1740,59.9840158866,Calib,001,test,
"[-1, -1, -0.95]",1,1,42,1,2017_Jul_05_1740,59.9840158866,Calib,001,test,
"[-1, -1, -0.9]",1,2,43,2,2017_Jul_05_1740,59.9840158866,Calib,001,test,
"[-1, -1, -0.85]",1,3,44,3,2017_Jul_05_1740,59.9840158866,Calib,001,test,
"[-1, -1, -0.8]",1,4,45,4,2017_Jul_05_1740,59.9840158866,Calib,001,test,
"[-1, -1, -0.75]",1,5,46,5,2017_Jul_05_1740,59.9840158866,Calib,001,test,
"[-1, -1, -0.7]",1,6,47,6,2017_Jul_05_1740,59.9840158866,Calib,001,test,
"[-1, -1, -0.65]",1,7,48,7,2017_Jul_05_1740,59.9840158866,Calib,001,test,
"[-1, -1, -0.6]",1,8,49,8,2017_Jul_05_1740,59.9840158866,Calib,001,test,
"[-1, -1, -0.55]",1,9,50,9,2017_Jul_05_1740,59.9840158866,Calib,001,test,
"[-1, -1, -0.5]",1,10,51,10,2017_Jul_05_1740,59.9840158866,Calib,001,test,
"[-1, -1, -0.45]",1,11,52,11,2017_Jul_05_1740,59.9840158866,Calib,001,test,
"[-1, -1, -0.4]",1,12,53,12,2017_Jul_05_1740,59.9840158866,Calib,001,test,
"[-1, -1, -0.35]",1,13,54,13,2017_Jul_05_1740,59.9840158866,Calib,001,test,
"[-1, -1, -0.3]",1,14,55,14,2017_Jul_05_1740,59.9840158866,Calib,001,test,
"[-1, -1, -0.25]",1,15,56,15,2017_Jul_05_1740,59.9840158866,Calib,001,test,
"[-1, -1, -0.2]",1,16,57,16,2017_Jul_05_1740,59.9840158866,Calib,001,test,
"[-1, -1, -0.15]",1,17,58,17,2017_Jul_05_1740,59.9840158866,Calib,001,test,
"[-1, -1, -0.1]",1,18,59,18,2017_Jul_05_1740,59.9840158866,Calib,001,test,
"[-1, -1, -0.05]",1,19,60,19,2017_Jul_05_1740,59.9840158866,Calib,001,test,
"[-1, -1, 0]",1,20,61,20,2017_Jul_05_1740,59.9840158866,Calib,001,test,
"[-1, -1, 0.05]",1,21,62,21,2017_Jul_05_1740,59.9840158866,Calib,001,test,
"[-1, -1, 0.1]",1,22,63,22,2017_Jul_05_1740,59.9840158866,Calib,001,test,
"[-1, -1, 0.15]",1,23,64,23,2017_Jul_05_1740,59.9840158866,Calib,001,test,
"[-1, -1, 0.2]",1,24,65,24,2017_Jul_05_1740,59.9840158866,Calib,001,test,
"[-1, -1, 0.25]",1,25,66,25,2017_Jul_05_1740,59.9840158866,Calib,001,test,
"[-1, -1, 0.3]",1,26,67,26,2017_Jul_05_1740,59.9840158866,Calib,001,test,
"[-1, -1, 0.35]",1,27,68,27,2017_Jul_05_1740,59.9840158866,Calib,001,test,
"[-1, -1, 0.4]",1,28,69,28,2017_Jul_05_1740,59.9840158866,Calib,001,test,
"[-1, -1, 0.45]",1,29,70,29,2017_Jul_05_1740,59.9840158866,Calib,001,test,
"[-1, -1, 0.5]",1,30,71,30,2017_Jul_05_1740,59.9840158866,Calib,001,test,
"[-1, -1, 0.55]",1,31,72,31,2017_Jul_05_1740,59.9840158866,Calib,001,test,
"[-1, -1, 0.6]",1,32,73,32,2017_Jul_05_1740,59.9840158866,Calib,001,test,
"[-1, -1, 0.65]",1,33,74,33,2017_Jul_05_1740,59.9840158866,Calib,001,test,
"[-1, -1, 0.7]",1,34,75,34,2017_Jul_05_1740,59.9840158866,Calib,001,test,
"[-1, -1, 0.75]",1,35,76,35,2017_Jul_05_1740,59.9840158866,Calib,001,test,
"[-1, -1, 0.8]",1,36,77,36,2017_Jul_05_1740,59.9840158866,Calib,001,test,
"[-1, -1, 0.85]",1,37,78,37,2017_Jul_05_1740,59.9840158866,Calib,001,test,
"[-1, -1, 0.9]",1,38,79,38,2017_Jul_05_1740,59.9840158866,Calib,001,test,
"[-1, -1, 0.95]",1,39,80,39,2017_Jul_05_1740,59.9840158866,Calib,001,test,
"[-1, -1, 1]",1,40,81,40,2017_Jul_05_1740,59.9840158866,Calib,001,test,
"[-1, -1, -1]",2,0,82,0,2017_Jul_05_1740,59.9840158866,Calib,001,test,
"[-1, -1, -0.95]",2,1,83,1,2017_Jul_05_1740,59.9840158866,Calib,001,test,
"[-1, -1, -0.9]",2,2,84,2,2017_Jul_05_1740,59.9840158866,Calib,001,test,
"[-1, -1, -0.85]",2,3,85,3,2017_Jul_05_1740,59.9840158866,Calib,001,test,
"[-1, -1, -0.8]",2,4,86,4,2017_Jul_05_1740,59.9840158866,Calib,001,test,
"[-1, -1, -0.75]",2,5,87,5,2017_Jul_05_1740,59.9840158866,Calib,001,test,
"[-1, -1, -0.7]",2,6,88,6,2017_Jul_05_1740,59.9840158866,Calib,001,test,
"[-1, -1, -0.65]",2,7,89,7,2017_Jul_05_1740,59.9840158866,Calib,001,test,
"[-1, -1, -0.6]",2,8,90,8,2017_Jul_05_1740,59.9840158866,Calib,001,test,
"[-1, -1, -0.55]",2,9,91,9,2017_Jul_05_1740,59.9840158866,Calib,001,test,
"[-1, -1, -0.5]",2,10,92,10,2017_Jul_05_1740,59.9840158866,Calib,001,test,
"[-1, -1, -0.45]",2,11,93,11,2017_Jul_05_1740,59.9840158866,Calib,001,test,
"[-1, -1, -0.4]",2,12,94,12,2017_Jul_05_1740,59.9840158866,Calib,001,test,
"[-1, -1, -0.35]",2,13,95,13,2017_Jul_05_1740,59.9840158866,Calib,001,test,
"[-1, -1, -0.3]",2,14,96,14,2017_Jul_05_1740,59.9840158866,Calib,001,test,
"[-1, -1, -0.25]",2,15,97,15,2017_Jul_05_1740,59.9840158866,Calib,001,test,
"[-1, -1, -0.2]",2,16,98,16,2017_Jul_05_1740,59.9840158866,Calib,001,test,
"[-1, -1, -0.15]",2,17,99,17,2017_Jul_05_1740,59.9840158866,Calib,001,test,
"[-1, -1, -0.1]",2,18,100,18,2017_Jul_05_1740,59.9840158866,Calib,001,test,
"[-1, -1, -0.05]",2,19,101,19,2017_Jul_05_1740,59.9840158866,Calib,001,test,
"[-1, -1, 0]",2,20,102,20,2017_Jul_05_1740,59.9840158866,Calib,001,test,
"[-1, -1, 0.05]",2,21,103,21,2017_Jul_05_1740,59.9840158866,Calib,001,test,
"[-1, -1, 0.1]",2,22,104,22,2017_Jul_05_1740,59.9840158866,Calib,001,test,
"[-1, -1, 0.15]",2,23,105,23,2017_Jul_05_1740,59.9840158866,Calib,001,test,
"[-1, -1, 0.2]",2,24,106,24,2017_Jul_05_1740,59.9840158866,Calib,001,test,
"[-1, -1, 0.25]",2,25,107,25,2017_Jul_05_1740,59.9840158866,Calib,001,test,
"[-1, -1, 0.3]",2,26,108,26,2017_Jul_05_1740,59.9840158866,Calib,001,test,
"[-1, -1, 0.35]",2,27,109,27,2017_Jul_05_1740,59.9840158866,Calib,001,test,
"[-1, -1, 0.4]",2,28,110,28,2017_Jul_05_1740,59.9840158866,Calib,001,test,
"[-1, -1, 0.45]",2,29,111,29,2017_Jul_05_1740,59.9840158866,Calib,001,test,
"[-1, -1, 0.5]",2,30,112,30,2017_Jul_05_1740,59.9840158866,Calib,001,test,
"[-1, -1, 0.55]",2,31,113,31,2017_Jul_05_1740,59.9840158866,Calib,001,test,
"[-1, -1, 0.6]",2,32,114,32,2017_Jul_05_1740,59.9840158866,Calib,001,test,
"[-1, -1, 0.65]",2,33,115,33,2017_Jul_05_1740,59.9840158866,Calib,001,test,
"[-1, -1, 0.7]",2,34,116,34,2017_Jul_05_1740,59.9840158866,Calib,001,test,
"[-1, -1, 0.75]",2,35,117,35,2017_Jul_05_1740,59.9840158866,Calib,001,test,
"[-1, -1, 0.8]",2,36,118,36,2017_Jul_05_1740,59.9840158866,Calib,001,test,
"[-1, -1, 0.85]",2,37,119,37,2017_Jul_05_1740,59.9840158866,Calib,001,test,
"[-1, -1, 0.9]",2,38,120,38,2017_Jul_05_1740,59.9840158866,Calib,001,test,
"[-1, -1, 0.95]",2,39,121,39,2017_Jul_05_1740,59.9840158866,Calib,001,test,
"[-1, -1, 1]",2,40,122,40,2017_Jul_05_1740,59.9840158866,Calib,001,test,
"[-1, -1, -1]",3,0,123,0,2017_Jul_05_1740,59.9840158866,Calib,001,test,
"[-1, -1, -0.95]",3,1,124,1,2017_Jul_05_1740,59.9840158866,Calib,001,test,
"[-1, -1, -0.9]",3,2,125,2,2017_Jul_05_1740,59.9840158866,Calib,001,test,
"[-1, -1, -0.85]",3,3,126,3,2017_Jul_05_1740,59.9840158866,Calib,001,test,
"[-1, -1, -0.8]",3,4,127,4,2017_Jul_05_1740,59.9840158866,Calib,001,test,
"[-1, -1, -0.75]",3,5,128,5,2017_Jul_05_1740,59.9840158866,Calib,001,test,
"[-1, -1, -0.7]",3,6,129,6,2017_Jul_05_1740,59.9840158866,Calib,001,test,
"[-1, -1, -0.65]",3,7,130,7,2017_Jul_05_1740,59.9840158866,Calib,001,test,
"[-1, -1, -0.6]",3,8,131,8,2017_Jul_05_1740,59.9840158866,Calib,001,test,
"[-1, -1, -0.55]",3,9,132,9,2017_Jul_05_1740,59.9840158866,Calib,001,test,
"[-1, -1, -0.5]",3,10,133,10,2017_Jul_05_1740,59.9840158866,Calib,001,test,
"[-1, -1, -0.45]",3,11,134,11,2017_Jul_05_1740,59.9840158866,Calib,001,test,
"[-1, -1, -0.4]",3,12,135,12,2017_Jul_05_1740,59.9840158866,Calib,001,test,
"[-1, -1, -0.35]",3,13,136,13,2017_Jul_05_1740,59.9840158866,Calib,001,test,
"[-1, -1, -0.3]",3,14,137,14,2017_Jul_05_1740,59.9840158866,Calib,001,test,
"[-1, -1, -0.25]",3,15,138,15,2017_Jul_05_1740,59.9840158866,Calib,001,test,
"[-1, -1, -0.2]",3,16,139,16,2017_Jul_05_1740,59.9840158866,Calib,001,test,
"[-1, -1, -0.15]",3,17,140,17,2017_Jul_05_1740,59.9840158866,Calib,001,test,
"[-1, -1, -0.1]",3,18,141,18,2017_Jul_05_1740,59.9840158866,Calib,001,test,
"[-1, -1, -0.05]",3,19,142,19,2017_Jul_05_1740,59.9840158866,Calib,001,test,
"[-1, -1, 0]",3,20,143,20,2017_Jul_05_1740,59.9840158866,Calib,001,test,
"[-1, -1, 0.05]",3,21,144,21,2017_Jul_05_1740,59.9840158866,Calib,001,test,
"[-1, -1, 0.1]",3,22,145,22,2017_Jul_05_1740,59.9840158866,Calib,001,test,
"[-1, -1, 0.15]",3,23,146,23,2017_Jul_05_1740,59.9840158866,Calib,001,test,
"[-1, -1, 0.2]",3,24,147,24,2017_Jul_05_1740,59.9840158866,Calib,001,test,
"[-1, -1, 0.25]",3,25,148,25,2017_Jul_05_1740,59.9840158866,Calib,001,test,
"[-1, -1, 0.3]",3,26,149,26,2017_Jul_05_1740,59.9840158866,Calib,001,test,
"[-1, -1, 0.35]",3,27,150,27,2017_Jul_05_1740,59.9840158866,Calib,001,test,
"[-1, -1, 0.4]",3,28,151,28,2017_Jul_05_1740,59.9840158866,Calib,001,test,
"[-1, -1, 0.45]",3,29,152,29,2017_Jul_05_1740,59.9840158866,Calib,001,test,
"[-1, -1, 0.5]",3,30,153,30,2017_Jul_05_1740,59.9840158866,Calib,001,test,
"[-1, -1, 0.55]",3,31,154,31,2017_Jul_05_1740,59.9840158866,Calib,001,test,
"[-1, -1, 0.6]",3,32,155,32,2017_Jul_05_1740,59.9840158866,Calib,001,test,
"[-1, -1, 0.65]",3,33,156,33,2017_Jul_05_1740,59.9840158866,Calib,001,test,
"[-1, -1, 0.7]",3,34,157,34,2017_Jul_05_1740,59.9840158866,Calib,001,test,
"[-1, -1, 0.75]",3,35,158,35,2017_Jul_05_1740,59.9840158866,Calib,001,test,
"[-1, -1, 0.8]",3,36,159,36,2017_Jul_05_1740,59.9840158866,Calib,001,test,
"[-1, -1, 0.85]",3,37,160,37,2017_Jul_05_1740,59.9840158866,Calib,001,test,
"[-1, -1, 0.9]",3,38,161,38,2017_Jul_05_1740,59.9840158866,Calib,001,test,
"[-1, -1, 0.95]",3,39,162,39,2017_Jul_05_1740,59.9840158866,Calib,001,test,
"[-1, -1, 1]",3,40,163,40,2017_Jul_05_1740,59.9840158866,Calib,001,test,
"[-1, -1, -1]",4,0,164,0,2017_Jul_05_1740,59.9840158866,Calib,001,test,
"[-1, -1, -0.95]",4,1,165,1,2017_Jul_05_1740,59.9840158866,Calib,001,test,
"[-1, -1, -0.9]",4,2,166,2,2017_Jul_05_1740,59.9840158866,Calib,001,test,
"[-1, -1, -0.85]",4,3,167,3,2017_Jul_05_1740,59.9840158866,Calib,001,test,
"[-1, -1, -0.8]",4,4,168,4,2017_Jul_05_1740,59.9840158866,Calib,001,test,
"[-1, -1, -0.75]",4,5,169,5,2017_Jul_05_1740,59.9840158866,Calib,001,test,
"[-1, -1, -0.7]",4,6,170,6,2017_Jul_05_1740,59.9840158866,Calib,001,test,
"[-1, -1, -0.65]",4,7,171,7,2017_Jul_05_1740,59.9840158866,Calib,001,test,
"[-1, -1, -0.6]",4,8,172,8,2017_Jul_05_1740,59.9840158866,Calib,001,test,
"[-1, -1, -0.55]",4,9,173,9,2017_Jul_05_1740,59.9840158866,Calib,001,test,
"[-1, -1, -0.5]",4,10,174,10,2017_Jul_05_1740,59.9840158866,Calib,001,test,
"[-1, -1, -0.45]",4,11,175,11,2017_Jul_05_1740,59.9840158866,Calib,001,test,
"[-1, -1, -0.4]",4,12,176,12,2017_Jul_05_1740,59.9840158866,Calib,001,test,
"[-1, -1, -0.35]",4,13,177,13,2017_Jul_05_1740,59.9840158866,Calib,001,test,
"[-1, -1, -0.3]",4,14,178,14,2017_Jul_05_1740,59.9840158866,Calib,001,test,
"[-1, -1, -0.25]",4,15,179,15,2017_Jul_05_1740,59.9840158866,Calib,001,test,
"[-1, -1, -0.2]",4,16,180,16,2017_Jul_05_1740,59.9840158866,Calib,001,test,
"[-1, -1, -0.15]",4,17,181,17,2017_Jul_05_1740,59.9840158866,Calib,001,test,
"[-1, -1, -0.1]",4,18,182,18,2017_Jul_05_1740,59.9840158866,Calib,001,test,
"[-1, -1, -0.05]",4,19,183,19,2017_Jul_05_1740,59.9840158866,Calib,001,test,
"[-1, -1, 0]",4,20,184,20,2017_Jul_05_1740,59.9840158866,Calib,001,test,
"[-1, -1, 0.05]",4,21,185,21,2017_Jul_05_1740,59.9840158866,Calib,001,test,
"[-1, -1, 0.1]",4,22,186,22,2017_Jul_05_1740,59.9840158866,Calib,001,test,
"[-1, -1, 0.15]",4,23,187,23,2017_Jul_05_1740,59.9840158866,Calib,001,test,
"[-1, -1, 0.2]",4,24,188,24,2017_Jul_05_1740,59.9840158866,Calib,001,test,
"[-1, -1, 0.25]",4,25,189,25,2017_Jul_05_1740,59.9840158866,Calib,001,test,
"[-1, -1, 0.3]",4,26,190,26,2017_Jul_05_1740,59.9840158866,Calib,001,test,
"[-1, -1, 0.35]",4,27,191,27,2017_Jul_05_1740,59.9840158866,Calib,001,test,
"[-1, -1, 0.4]",4,28,192,28,2017_Jul_05_1740,59.9840158866,Calib,001,test,
"[-1, -1, 0.45]",4,29,193,29,2017_Jul_05_1740,59.9840158866,Calib,001,test,
"[-1, -1, 0.5]",4,30,194,30,2017_Jul_05_1740,59.9840158866,Calib,001,test,
"[-1, -1, 0.55]",4,31,195,31,2017_Jul_05_1740,59.9840158866,Calib,001,test,
"[-1, -1, 0.6]",4,32,196,32,2017_Jul_05_1740,59.9840158866,Calib,001,test,
"[-1, -1, 0.65]",4,33,197,33,2017_Jul_05_1740,59.9840158866,Calib,001,test,
"[-1, -1, 0.7]",4,34,198,34,2017_Jul_05_1740,59.9840158866,Calib,001,test,
"[-1, -1, 0.75]",4,35,199,35,2017_Jul_05_1740,59.9840158866,Calib,001,test,
"[-1, -1, 0.8]",4,36,200,36,2017_Jul_05_1740,59.9840158866,Calib,001,test,
"[-1, -1, 0.85]",4,37,201,37,2017_Jul_05_1740,59.9840158866,Calib,001,test,
"[-1, -1, 0.9]",4,38,202,38,2017_Jul_05_1740,59.9840158866,Calib,001,test,
"[-1, -1, 0.95]",4,39,203,39,2017_Jul_05_1740,59.9840158866,Calib,001,test,
"[-1, -1, 1]",4,40,204,40,2017_Jul_05_1740,59.9840158866,Calib,001,test,
"[-1, -1, -1]",5,0,205,0,2017_Jul_05_1740,59.9840158866,Calib,001,test,
"[-1, -1, -0.95]",5,1,206,1,2017_Jul_05_1740,59.9840158866,Calib,001,test,
"[-1, -1, -0.9]",5,2,207,2,2017_Jul_05_1740,59.9840158866,Calib,001,test,
"[-1, -1, -0.85]",5,3,208,3,2017_Jul_05_1740,59.9840158866,Calib,001,test,
"[-1, -1, -0.8]",5,4,209,4,2017_Jul_05_1740,59.9840158866,Calib,001,test,
"[-1, -1, -0.75]",5,5,210,5,2017_Jul_05_1740,59.9840158866,Calib,001,test,
"[-1, -1, -0.7]",5,6,211,6,2017_Jul_05_1740,59.9840158866,Calib,001,test,
"[-1, -1, -0.65]",5,7,212,7,2017_Jul_05_1740,59.9840158866,Calib,001,test,
"[-1, -1, -0.6]",5,8,213,8,2017_Jul_05_1740,59.9840158866,Calib,001,test,
"[-1, -1, -0.55]",5,9,214,9,2017_Jul_05_1740,59.9840158866,Calib,001,test,
"[-1, -1, -0.5]",5,10,215,10,2017_Jul_05_1740,59.9840158866,Calib,001,test,
"[-1, -1, -0.45]",5,11,216,11,2017_Jul_05_1740,59.9840158866,Calib,001,test,
"[-1, -1, -0.4]",5,12,217,12,2017_Jul_05_1740,59.9840158866,Calib,001,test,
"[-1, -1, -0.35]",5,13,218,13,2017_Jul_05_1740,59.9840158866,Calib,001,test,
"[-1, -1, -0.3]",5,14,219,14,2017_Jul_05_1740,59.9840158866,Calib,001,test,
"[-1, -1, -0.25]",5,15,220,15,2017_Jul_05_1740,59.9840158866,Calib,001,test,
"[-1, -1, -0.2]",5,16,221,16,2017_Jul_05_1740,59.9840158866,Calib,001,test,
"[-1, -1, -0.15]",5,17,222,17,2017_Jul_05_1740,59.9840158866,Calib,001,test,
"[-1, -1, -0.1]",5,18,223,18,2017_Jul_05_1740,59.9840158866,Calib,001,test,
"[-1, -1, -0.05]",5,19,224,19,2017_Jul_05_1740,59.9840158866,Calib,001,test,
"[-1, -1, 0]",5,20,225,20,2017_Jul_05_1740,59.9840158866,Calib,001,test,
"[-1, -1, 0.05]",5,21,226,21,2017_Jul_05_1740,59.9840158866,Calib,001,test,
"[-1, -1, 0.1]",5,22,227,22,2017_Jul_05_1740,59.9840158866,Calib,001,test,
"[-1, -1, 0.15]",5,23,228,23,2017_Jul_05_1740,59.9840158866,Calib,001,test,
"[-1, -1, 0.2]",5,24,229,24,2017_Jul_05_1740,59.9840158866,Calib,001,test,
"[-1, -1, 0.25]",5,25,230,25,2017_Jul_05_1740,59.9840158866,Calib,001,test,
"[-1, -1, 0.3]",5,26,231,26,2017_Jul_05_1740,59.9840158866,Calib,001,test,
"[-1, -1, 0.35]",5,27,232,27,2017_Jul_05_1740,59.9840158866,Calib,001,test,
"[-1, -1, 0.4]",5,28,233,28,2017_Jul_05_1740,59.9840158866,Calib,001,test,
"[-1, -1, 0.45]",5,29,234,29,2017_Jul_05_1740,59.9840158866,Calib,001,test,
"[-1, -1, 0.5]",5,30,235,30,2017_Jul_05_1740,59.9840158866,Calib,001,test,
"[-1, -1, 0.55]",5,31,236,31,2017_Jul_05_1740,59.9840158866,Calib,001,test,
"[-1, -1, 0.6]",5,32,237,32,2017_Jul_05_1740,59.9840158866,Calib,001,test,
"[-1, -1, 0.65]",5,33,238,33,2017_Jul_05_1740,59.9840158866,Calib,001,test,
"[-1, -1, 0.7]",5,34,239,34,2017_Jul_05_1740,59.9840158866,Calib,001,test,
"[-1, -1, 0.75]",5,35,240,35,2017_Jul_05_1740,59.9840158866,Calib,001,test,
"[-1, -1, 0.8]",5,36,241,36,2017_Jul_05_1740,59.9840158866,Calib,001,test,
"[-1, -1, 0.85]",5,37,242,37,2017_Jul_05_1740,59.9840158866,Calib,001,test,
"[-1, -1, 0.9]",5,38,243,38,2017_Jul_05_1740,59.9840158866,Calib,001,test,
"[-1, -1, 0.95]",5,39,244,39,2017_Jul_05_1740,59.9840158866,Calib,001,test,
"[-1, -1, 1]",5,40,245,40,2017_Jul_05_1740,59.9840158866,Calib,001,test,
"[-1, -1, -1]",6,0,246,0,2017_Jul_05_1740,59.9840158866,Calib,001,test,
"[-1, -1, -0.95]",6,1,247,1,2017_Jul_05_1740,59.9840158866,Calib,001,test,
"[-1, -1, -0.9]",6,2,248,2,2017_Jul_05_1740,59.9840158866,Calib,001,test,
"[-1, -1, -0.85]",6,3,249,3,2017_Jul_05_1740,59.9840158866,Calib,001,test,
"[-1, -1, -0.8]",6,4,250,4,2017_Jul_05_1740,59.9840158866,Calib,001,test,
"[-1, -1, -0.75]",6,5,251,5,2017_Jul_05_1740,59.9840158866,Calib,001,test,
"[-1, -1, -0.7]",6,6,252,6,2017_Jul_05_1740,59.9840158866,Calib,001,test,
"[-1, -1, -0.65]",6,7,253,7,2017_Jul_05_1740,59.9840158866,Calib,001,test,
"[-1, -1, -0.6]",6,8,254,8,2017_Jul_05_1740,59.9840158866,Calib,001,test,
"[-1, -1, -0.55]",6,9,255,9,2017_Jul_05_1740,59.9840158866,Calib,001,test,
"[-1, -1, -0.5]",6,10,256,10,2017_Jul_05_1740,59.9840158866,Calib,001,test,
"[-1, -1, -0.45]",6,11,257,11,2017_Jul_05_1740,59.9840158866,Calib,001,test,
"[-1, -1, -0.4]",6,12,258,12,2017_Jul_05_1740,59.9840158866,Calib,001,test,
"[-1, -1, -0.35]",6,13,259,13,2017_Jul_05_1740,59.9840158866,Calib,001,test,
"[-1, -1, -0.3]",6,14,260,14,2017_Jul_05_1740,59.9840158866,Calib,001,test,
"[-1, -1, -0.25]",6,15,261,15,2017_Jul_05_1740,59.9840158866,Calib,001,test,
"[-1, -1, -0.2]",6,16,262,16,2017_Jul_05_1740,59.9840158866,Calib,001,test,
"[-1, -1, -0.15]",6,17,263,17,2017_Jul_05_1740,59.9840158866,Calib,001,test,
"[-1, -1, -0.1]",6,18,264,18,2017_Jul_05_1740,59.9840158866,Calib,001,test,
"[-1, -1, -0.05]",6,19,265,19,2017_Jul_05_1740,59.9840158866,Calib,001,test,
"[-1, -1, 0]",6,20,266,20,2017_Jul_05_1740,59.9840158866,Calib,001,test,
"[-1, -1, 0.05]",6,21,267,21,2017_Jul_05_1740,59.9840158866,Calib,001,test,
"[-1, -1, 0.1]",6,22,268,22,2017_Jul_05_1740,59.9840158866,Calib,001,test,
"[-1, -1, 0.15]",6,23,269,23,2017_Jul_05_1740,59.9840158866,Calib,001,test,
"[-1, -1, 0.2]",6,24,270,24,2017_Jul_05_1740,59.9840158866,Calib,001,test,
"[-1, -1, 0.25]",6,25,271,25,2017_Jul_05_1740,59.9840158866,Calib,001,test,
"[-1, -1, 0.3]",6,26,272,26,2017_Jul_05_1740,59.9840158866,Calib,001,test,
"[-1, -1, 0.35]",6,27,273,27,2017_Jul_05_1740,59.9840158866,Calib,001,test,
"[-1, -1, 0.4]",6,28,274,28,2017_Jul_05_1740,59.9840158866,Calib,001,test,
"[-1, -1, 0.45]",6,29,275,29,2017_Jul_05_1740,59.9840158866,Calib,001,test,
"[-1, -1, 0.5]",6,30,276,30,2017_Jul_05_1740,59.9840158866,Calib,001,test,
"[-1, -1, 0.55]",6,31,277,31,2017_Jul_05_1740,59.9840158866,Calib,001,test,
"[-1, -1, 0.6]",6,32,278,32,2017_Jul_05_1740,59.9840158866,Calib,001,test,
"[-1, -1, 0.65]",6,33,279,33,2017_Jul_05_1740,59.9840158866,Calib,001,test,
"[-1, -1, 0.7]",6,34,280,34,2017_Jul_05_1740,59.9840158866,Calib,001,test,
"[-1, -1, 0.75]",6,35,281,35,2017_Jul_05_1740,59.9840158866,Calib,001,test,
"[-1, -1, 0.8]",6,36,282,36,2017_Jul_05_1740,59.9840158866,Calib,001,test,
"[-1, -1, 0.85]",6,37,283,37,2017_Jul_05_1740,59.9840158866,Calib,001,test,
"[-1, -1, 0.9]",6,38,284,38,2017_Jul_05_1740,59.9840158866,Calib,001,test,
"[-1, -1, 0.95]",6,39,285,39,2017_Jul_05_1740,59.9840158866,Calib,001,test,
"[-1, -1, 1]",6,40,286,40,2017_Jul_05_1740,59.9840158866,Calib,001,test,
"[-1, -1, -1]",7,0,287,0,2017_Jul_05_1740,59.9840158866,Calib,001,test,
"[-1, -1, -0.95]",7,1,288,1,2017_Jul_05_1740,59.9840158866,Calib,001,test,
"[-1, -1, -0.9]",7,2,289,2,2017_Jul_05_1740,59.9840158866,Calib,001,test,
"[-1, -1, -0.85]",7,3,290,3,2017_Jul_05_1740,59.9840158866,Calib,001,test,
"[-1, -1, -0.8]",7,4,291,4,2017_Jul_05_1740,59.9840158866,Calib,001,test,
"[-1, -1, -0.75]",7,5,292,5,2017_Jul_05_1740,59.9840158866,Calib,001,test,
"[-1, -1, -0.7]",7,6,293,6,2017_Jul_05_1740,59.9840158866,Calib,001,test,
"[-1, -1, -0.65]",7,7,294,7,2017_Jul_05_1740,59.9840158866,Calib,001,test,
"[-1, -1, -0.6]",7,8,295,8,2017_Jul_05_1740,59.9840158866,Calib,001,test,
"[-1, -1, -0.55]",7,9,296,9,2017_Jul_05_1740,59.9840158866,Calib,001,test,
"[-1, -1, -0.5]",7,10,297,10,2017_Jul_05_1740,59.9840158866,Calib,001,test,
"[-1, -1, -0.45]",7,11,298,11,2017_Jul_05_1740,59.9840158866,Calib,001,test,
"[-1, -1, -0.4]",7,12,299,12,2017_Jul_05_1740,59.9840158866,Calib,001,test,
"[-1, -1, -0.35]",7,13,300,13,2017_Jul_05_1740,59.9840158866,Calib,001,test,
"[-1, -1, -0.3]",7,14,301,14,2017_Jul_05_1740,59.9840158866,Calib,001,test,
"[-1, -1, -0.25]",7,15,302,15,2017_Jul_05_1740,59.9840158866,Calib,001,test,
"[-1, -1, -0.2]",7,16,303,16,2017_Jul_05_1740,59.9840158866,Calib,001,test,
"[-1, -1, -0.15]",7,17,304,17,2017_Jul_05_1740,59.9840158866,Calib,001,test,
"[-1, -1, -0.1]",7,18,305,18,2017_Jul_05_1740,59.9840158866,Calib,001,test,
"[-1, -1, -0.05]",7,19,306,19,2017_Jul_05_1740,59.9840158866,Calib,001,test,
"[-1, -1, 0]",7,20,307,20,2017_Jul_05_1740,59.9840158866,Calib,001,test,
"[-1, -1, 0.05]",7,21,308,21,2017_Jul_05_1740,59.9840158866,Calib,001,test,
"[-1, -1, 0.1]",7,22,309,22,2017_Jul_05_1740,59.9840158866,Calib,001,test,
"[-1, -1, 0.15]",7,23,310,23,2017_Jul_05_1740,59.9840158866,Calib,001,test,
"[-1, -1, 0.2]",7,24,311,24,2017_Jul_05_1740,59.9840158866,Calib,001,test,
"[-1, -1, 0.25]",7,25,312,25,2017_Jul_05_1740,59.9840158866,Calib,001,test,
"[-1, -1, 0.3]",7,26,313,26,2017_Jul_05_1740,59.9840158866,Calib,001,test,
"[-1, -1, 0.35]",7,27,314,27,2017_Jul_05_1740,59.9840158866,Calib,001,test,
"[-1, -1, 0.4]",7,28,315,28,2017_Jul_05_1740,59.9840158866,Calib,001,test,
"[-1, -1, 0.45]",7,29,316,29,2017_Jul_05_1740,59.9840158866,Calib,001,test,
"[-1, -1, 0.5]",7,30,317,30,2017_Jul_05_1740,59.9840158866,Calib,001,test,
"[-1, -1, 0.55]",7,31,318,31,2017_Jul_05_1740,59.9840158866,Calib,001,test,
"[-1, -1, 0.6]",7,32,319,32,2017_Jul_05_1740,59.9840158866,Calib,001,test,
"[-1, -1, 0.65]",7,33,320,33,2017_Jul_05_1740,59.9840158866,Calib,001,test,
"[-1, -1, 0.7]",7,34,321,34,2017_Jul_05_1740,59.9840158866,Calib,001,test,
"[-1, -1, 0.75]",7,35,322,35,2017_Jul_05_1740,59.9840158866,Calib,001,test,
"[-1, -1, 0.8]",7,36,323,36,2017_Jul_05_1740,59.9840158866,Calib,001,test,
"[-1, -1, 0.85]",7,37,324,37,2017_Jul_05_1740,59.9840158866,Calib,001,test,
"[-1, -1, 0.9]",7,38,325,38,2017_Jul_05_1740,59.9840158866,Calib,001,test,
"[-1, -1, 0.95]",7,39,326,39,2017_Jul_05_1740,59.9840158866,Calib,001,test,
"[-1, -1, 1]",7,40,327,40,2017_Jul_05_1740,59.9840158866,Calib,001,test,
"[-1, -1, -1]",8,0,328,0,2017_Jul_05_1740,59.9840158866,Calib,001,test,
"[-1, -1, -0.95]",8,1,329,1,2017_Jul_05_1740,59.9840158866,Calib,001,test,
"[-1, -1, -0.9]",8,2,330,2,2017_Jul_05_1740,59.9840158866,Calib,001,test,
"[-1, -1, -0.85]",8,3,331,3,2017_Jul_05_1740,59.9840158866,Calib,001,test,
"[-1, -1, -0.8]",8,4,332,4,2017_Jul_05_1740,59.9840158866,Calib,001,test,
"[-1, -1, -0.75]",8,5,333,5,2017_Jul_05_1740,59.9840158866,Calib,001,test,
"[-1, -1, -0.7]",8,6,334,6,2017_Jul_05_1740,59.9840158866,Calib,001,test,
"[-1, -1, -0.65]",8,7,335,7,2017_Jul_05_1740,59.9840158866,Calib,001,test,
"[-1, -1, -0.6]",8,8,336,8,2017_Jul_05_1740,59.9840158866,Calib,001,test,
"[-1, -1, -0.55]",8,9,337,9,2017_Jul_05_1740,59.9840158866,Calib,001,test,
"[-1, -1, -0.5]",8,10,338,10,2017_Jul_05_1740,59.9840158866,Calib,001,test,
"[-1, -1, -0.45]",8,11,339,11,2017_Jul_05_1740,59.9840158866,Calib,001,test,
"[-1, -1, -0.4]",8,12,340,12,2017_Jul_05_1740,59.9840158866,Calib,001,test,
"[-1, -1, -0.35]",8,13,341,13,2017_Jul_05_1740,59.9840158866,Calib,001,test,
"[-1, -1, -0.3]",8,14,342,14,2017_Jul_05_1740,59.9840158866,Calib,001,test,
"[-1, -1, -0.25]",8,15,343,15,2017_Jul_05_1740,59.9840158866,Calib,001,test,
"[-1, -1, -0.2]",8,16,344,16,2017_Jul_05_1740,59.9840158866,Calib,001,test,
"[-1, -1, -0.15]",8,17,345,17,2017_Jul_05_1740,59.9840158866,Calib,001,test,
"[-1, -1, -0.1]",8,18,346,18,2017_Jul_05_1740,59.9840158866,Calib,001,test,
"[-1, -1, -0.05]",8,19,347,19,2017_Jul_05_1740,59.9840158866,Calib,001,test,
"[-1, -1, 0]",8,20,348,20,2017_Jul_05_1740,59.9840158866,Calib,001,test,
"[-1, -1, 0.05]",8,21,349,21,2017_Jul_05_1740,59.9840158866,Calib,001,test,
"[-1, -1, 0.1]",8,22,350,22,2017_Jul_05_1740,59.9840158866,Calib,001,test,
"[-1, -1, 0.15]",8,23,351,23,2017_Jul_05_1740,59.9840158866,Calib,001,test,
"[-1, -1, 0.2]",8,24,352,24,2017_Jul_05_1740,59.9840158866,Calib,001,test,
"[-1, -1, 0.25]",8,25,353,25,2017_Jul_05_1740,59.9840158866,Calib,001,test,
"[-1, -1, 0.3]",8,26,354,26,2017_Jul_05_1740,59.9840158866,Calib,001,test,
"[-1, -1, 0.35]",8,27,355,27,2017_Jul_05_1740,59.9840158866,Calib,001,test,
"[-1, -1, 0.4]",8,28,356,28,2017_Jul_05_1740,59.9840158866,Calib,001,test,
"[-1, -1, 0.45]",8,29,357,29,2017_Jul_05_1740,59.9840158866,Calib,001,test,
"[-1, -1, 0.5]",8,30,358,30,2017_Jul_05_1740,59.9840158866,Calib,001,test,
"[-1, -1, 0.55]",8,31,359,31,2017_Jul_05_1740,59.9840158866,Calib,001,test,
"[-1, -1, 0.6]",8,32,360,32,2017_Jul_05_1740,59.9840158866,Calib,001,test,
"[-1, -1, 0.65]",8,33,361,33,2017_Jul_05_1740,59.9840158866,Calib,001,test,
"[-1, -1, 0.7]",8,34,362,34,2017_Jul_05_1740,59.9840158866,Calib,001,test,
"[-1, -1, 0.75]",8,35,363,35,2017_Jul_05_1740,59.9840158866,Calib,001,test,
"[-1, -1, 0.8]",8,36,364,36,2017_Jul_05_1740,59.9840158866,Calib,001,test,
"[-1, -1, 0.85]",8,37,365,37,2017_Jul_05_1740,59.9840158866,Calib,001,test,
"[-1, -1, 0.9]",8,38,366,38,2017_Jul_05_1740,59.9840158866,Calib,001,test,
"[-1, -1, 0.95]",8,39,367,39,2017_Jul_05_1740,59.9840158866,Calib,001,test,
"[-1, -1, 1]",8,40,368,40,2017_Jul_05_1740,59.9840158866,Calib,001,test,
"[-1, -1, -1]",9,0,369,0,2017_Jul_05_1740,59.9840158866,Calib,001,test,
"[-1, -1, -0.95]",9,1,370,1,2017_Jul_05_1740,59.9840158866,Calib,001,test,
"[-1, -1, -0.9]",9,2,371,2,2017_Jul_05_1740,59.9840158866,Calib,001,test,
"[-1, -1, -0.85]",9,3,372,3,2017_Jul_05_1740,59.9840158866,Calib,001,test,
"[-1, -1, -0.8]",9,4,373,4,2017_Jul_05_1740,59.9840158866,Calib,001,test,
"[-1, -1, -0.75]",9,5,374,5,2017_Jul_05_1740,59.9840158866,Calib,001,test,
"[-1, -1, -0.7]",9,6,375,6,2017_Jul_05_1740,59.9840158866,Calib,001,test,
"[-1, -1, -0.65]",9,7,376,7,2017_Jul_05_1740,59.9840158866,Calib,001,test,
"[-1, -1, -0.6]",9,8,377,8,2017_Jul_05_1740,59.9840158866,Calib,001,test,
"[-1, -1, -0.55]",9,9,378,9,2017_Jul_05_1740,59.9840158866,Calib,001,test,
"[-1, -1, -0.5]",9,10,379,10,2017_Jul_05_1740,59.9840158866,Calib,001,test,
"[-1, -1, -0.45]",9,11,380,11,2017_Jul_05_1740,59.9840158866,Calib,001,test,
"[-1, -1, -0.4]",9,12,381,12,2017_Jul_05_1740,59.9840158866,Calib,001,test,
"[-1, -1, -0.35]",9,13,382,13,2017_Jul_05_1740,59.9840158866,Calib,001,test,
"[-1, -1, -0.3]",9,14,383,14,2017_Jul_05_1740,59.9840158866,Calib,001,test,
"[-1, -1, -0.25]",9,15,384,15,2017_Jul_05_1740,59.9840158866,Calib,001,test,
"[-1, -1, -0.2]",9,16,385,16,2017_Jul_05_1740,59.9840158866,Calib,001,test,
"[-1, -1, -0.15]",9,17,386,17,2017_Jul_05_1740,59.9840158866,Calib,001,test,
"[-1, -1, -0.1]",9,18,387,18,2017_Jul_05_1740,59.9840158866,Calib,001,test,
"[-1, -1, -0.05]",9,19,388,19,2017_Jul_05_1740,59.9840158866,Calib,001,test,
"[-1, -1, 0]",9,20,389,20,2017_Jul_05_1740,59.9840158866,Calib,001,test,
"[-1, -1, 0.05]",9,21,390,21,2017_Jul_05_1740,59.9840158866,Calib,001,test,
"[-1, -1, 0.1]",9,22,391,22,2017_Jul_05_1740,59.9840158866,Calib,001,test,
"[-1, -1, 0.15]",9,23,392,23,2017_Jul_05_1740,59.9840158866,Calib,001,test,
"[-1, -1, 0.2]",9,24,393,24,2017_Jul_05_1740,59.9840158866,Calib,001,test,
"[-1, -1, 0.25]",9,25,394,25,2017_Jul_05_1740,59.9840158866,Calib,001,test,
"[-1, -1, 0.3]",9,26,395,26,2017_Jul_05_1740,59.9840158866,Calib,001,test,
"[-1, -1, 0.35]",9,27,396,27,2017_Jul_05_1740,59.9840158866,Calib,001,test,
"[-1, -1, 0.4]",9,28,397,28,2017_Jul_05_1740,59.9840158866,Calib,001,test,
"[-1, -1, 0.45]",9,29,398,29,2017_Jul_05_1740,59.9840158866,Calib,001,test,
"[-1, -1, 0.5]",9,30,399,30,2017_Jul_05_1740,59.9840158866,Calib,001,test,
"[-1, -1, 0.55]",9,31,400,31,2017_Jul_05_1740,59.9840158866,Calib,001,test,
"[-1, -1, 0.6]",9,32,401,32,2017_Jul_05_1740,59.9840158866,Calib,001,test,
"[-1, -1, 0.65]",9,33,402,33,2017_Jul_05_1740,59.9840158866,Calib,001,test,
"[-1, -1, 0.7]",9,34,403,34,2017_Jul_05_1740,59.9840158866,Calib,001,test,
"[-1, -1, 0.75]",9,35,404,35,2017_Jul_05_1740,59.9840158866,Calib,001,test,
"[-1, -1, 0.8]",9,36,405,36,2017_Jul_05_1740,59.9840158866,Calib,001,test,
"[-1, -1, 0.85]",9,37,406,37,2017_Jul_05_1740,59.9840158866,Calib,001,test,
"[-1, -1, 0.9]",9,38,407,38,2017_Jul_05_1740,59.9840158866,Calib,001,test,
"[-1, -1, 0.95]",9,39,408,39,2017_Jul_05_1740,59.9840158866,Calib,001,test,
"[-1, -1, 1]",9,40,409,40,2017_Jul_05_1740,59.9840158866,Calib,001,test,
"[-1, -1, -1]",10,0,410,0,2017_Jul_05_1740,59.9840158866,Calib,001,test,
"[-1, -1, -0.95]",10,1,411,1,2017_Jul_05_1740,59.9840158866,Calib,001,test,
"[-1, -1, -0.9]",10,2,412,2,2017_Jul_05_1740,59.9840158866,Calib,001,test,
"[-1, -1, -0.85]",10,3,413,3,2017_Jul_05_1740,59.9840158866,Calib,001,test,
"[-1, -1, -0.8]",10,4,414,4,2017_Jul_05_1740,59.9840158866,Calib,001,test,
"[-1, -1, -0.75]",10,5,415,5,2017_Jul_05_1740,59.9840158866,Calib,001,test,
"[-1, -1, -0.7]",10,6,416,6,2017_Jul_05_1740,59.9840158866,Calib,001,test,
"[-1, -1, -0.65]",10,7,417,7,2017_Jul_05_1740,59.9840158866,Calib,001,test,
"[-1, -1, -0.6]",10,8,418,8,2017_Jul_05_1740,59.9840158866,Calib,001,test,
"[-1, -1, -0.55]",10,9,419,9,2017_Jul_05_1740,59.9840158866,Calib,001,test,
"[-1, -1, -0.5]",10,10,420,10,2017_Jul_05_1740,59.9840158866,Calib,001,test,
"[-1, -1, -0.45]",10,11,421,11,2017_Jul_05_1740,59.9840158866,Calib,001,test,
"[-1, -1, -0.4]",10,12,422,12,2017_Jul_05_1740,59.9840158866,Calib,001,test,
"[-1, -1, -0.35]",10,13,423,13,2017_Jul_05_1740,59.9840158866,Calib,001,test,
"[-1, -1, -0.3]",10,14,424,14,2017_Jul_05_1740,59.9840158866,Calib,001,test,
"[-1, -1, -0.25]",10,15,425,15,2017_Jul_05_1740,59.9840158866,Calib,001,test,
"[-1, -1, -0.2]",10,16,426,16,2017_Jul_05_1740,59.9840158866,Calib,001,test,
"[-1, -1, -0.15]",10,17,427,17,2017_Jul_05_1740,59.9840158866,Calib,001,test,
"[-1, -1, -0.1]",10,18,428,18,2017_Jul_05_1740,59.9840158866,Calib,001,test,
"[-1, -1, -0.05]",10,19,429,19,2017_Jul_05_1740,59.9840158866,Calib,001,test,
"[-1, -1, 0]",10,20,430,20,2017_Jul_05_1740,59.9840158866,Calib,001,test,
"[-1, -1, 0.05]",10,21,431,21,2017_Jul_05_1740,59.9840158866,Calib,001,test,
"[-1, -1, 0.1]",10,22,432,22,2017_Jul_05_1740,59.9840158866,Calib,001,test,
"[-1, -1, 0.15]",10,23,433,23,2017_Jul_05_1740,59.9840158866,Calib,001,test,
"[-1, -1, 0.2]",10,24,434,24,2017_Jul_05_1740,59.9840158866,Calib,001,test,
"[-1, -1, 0.25]",10,25,435,25,2017_Jul_05_1740,59.9840158866,Calib,001,test,
"[-1, -1, 0.3]",10,26,436,26,2017_Jul_05_1740,59.9840158866,Calib,001,test,
"[-1, -1, 0.35]",10,27,437,27,2017_Jul_05_1740,59.9840158866,Calib,001,test,
"[-1, -1, 0.4]",10,28,438,28,2017_Jul_05_1740,59.9840158866,Calib,001,test,
"[-1, -1, 0.45]",10,29,439,29,2017_Jul_05_1740,59.9840158866,Calib,001,test,
"[-1, -1, 0.5]",10,30,440,30,2017_Jul_05_1740,59.9840158866,Calib,001,test,
"[-1, -1, 0.55]",10,31,441,31,2017_Jul_05_1740,59.9840158866,Calib,001,test,
"[-1, -1, 0.6]",10,32,442,32,2017_Jul_05_1740,59.9840158866,Calib,001,test,
"[-1, -1, 0.65]",10,33,443,33,2017_Jul_05_1740,59.9840158866,Calib,001,test,
"[-1, -1, 0.7]",10,34,444,34,2017_Jul_05_1740,59.9840158866,Calib,001,test,
"[-1, -1, 0.75]",10,35,445,35,2017_Jul_05_1740,59.9840158866,Calib,001,test,
"[-1, -1, 0.8]",10,36,446,36,2017_Jul_05_1740,59.9840158866,Calib,001,test,
"[-1, -1, 0.85]",10,37,447,37,2017_Jul_05_1740,59.9840158866,Calib,001,test,
"[-1, -1, 0.9]",10,38,448,38,2017_Jul_05_1740,59.9840158866,Calib,001,test,
"[-1, -1, 0.95]",10,39,449,39,2017_Jul_05_1740,59.9840158866,Calib,001,test,
"[-1, -1, 1]",10,40,450,40,2017_Jul_05_1740,59.9840158866,Calib,001,test,
"[-1, -1, -1]",11,0,451,0,2017_Jul_05_1740,59.9840158866,Calib,001,test,
"[-1, -1, -0.95]",11,1,452,1,2017_Jul_05_1740,59.9840158866,Calib,001,test,
"[-1, -1, -0.9]",11,2,453,2,2017_Jul_05_1740,59.9840158866,Calib,001,test,
"[-1, -1, -0.85]",11,3,454,3,2017_Jul_05_1740,59.9840158866,Calib,001,test,
"[-1, -1, -0.8]",11,4,455,4,2017_Jul_05_1740,59.9840158866,Calib,001,test,
"[-1, -1, -0.75]",11,5,456,5,2017_Jul_05_1740,59.9840158866,Calib,001,test,
"[-1, -1, -0.7]",11,6,457,6,2017_Jul_05_1740,59.9840158866,Calib,001,test,
"[-1, -1, -0.65]",11,7,458,7,2017_Jul_05_1740,59.9840158866,Calib,001,test,
"[-1, -1, -0.6]",11,8,459,8,2017_Jul_05_1740,59.9840158866,Calib,001,test,
"[-1, -1, -0.55]",11,9,460,9,2017_Jul_05_1740,59.9840158866,Calib,001,test,
"[-1, -1, -0.5]",11,10,461,10,2017_Jul_05_1740,59.9840158866,Calib,001,test,
"[-1, -1, -0.45]",11,11,462,11,2017_Jul_05_1740,59.9840158866,Calib,001,test,
"[-1, -1, -0.4]",11,12,463,12,2017_Jul_05_1740,59.9840158866,Calib,001,test,
"[-1, -1, -0.35]",11,13,464,13,2017_Jul_05_1740,59.9840158866,Calib,001,test,
"[-1, -1, -0.3]",11,14,465,14,2017_Jul_05_1740,59.9840158866,Calib,001,test,
"[-1, -1, -0.25]",11,15,466,15,2017_Jul_05_1740,59.9840158866,Calib,001,test,
"[-1, -1, -0.2]",11,16,467,16,2017_Jul_05_1740,59.9840158866,Calib,001,test,
"[-1, -1, -0.15]",11,17,468,17,2017_Jul_05_1740,59.9840158866,Calib,001,test,
"[-1, -1, -0.1]",11,18,469,18,2017_Jul_05_1740,59.9840158866,Calib,001,test,
"[-1, -1, -0.05]",11,19,470,19,2017_Jul_05_1740,59.9840158866,Calib,001,test,
"[-1, -1, 0]",11,20,471,20,2017_Jul_05_1740,59.9840158866,Calib,001,test,
"[-1, -1, 0.05]",11,21,472,21,2017_Jul_05_1740,59.9840158866,Calib,001,test,
"[-1, -1, 0.1]",11,22,473,22,2017_Jul_05_1740,59.9840158866,Calib,001,test,
"[-1, -1, 0.15]",11,23,474,23,2017_Jul_05_1740,59.9840158866,Calib,001,test,
"[-1, -1, 0.2]",11,24,475,24,2017_Jul_05_1740,59.9840158866,Calib,001,test,
"[-1, -1, 0.25]",11,25,476,25,2017_Jul_05_1740,59.9840158866,Calib,001,test,
"[-1, -1, 0.3]",11,26,477,26,2017_Jul_05_1740,59.9840158866,Calib,001,test,
"[-1, -1, 0.35]",11,27,478,27,2017_Jul_05_1740,59.9840158866,Calib,001,test,
"[-1, -1, 0.4]",11,28,479,28,2017_Jul_05_1740,59.9840158866,Calib,001,test,
"[-1, -1, 0.45]",11,29,480,29,2017_Jul_05_1740,59.9840158866,Calib,001,test,
"[-1, -1, 0.5]",11,30,481,30,2017_Jul_05_1740,59.9840158866,Calib,001,test,
"[-1, -1, 0.55]",11,31,482,31,2017_Jul_05_1740,59.9840158866,Calib,001,test,
"[-1, -1, 0.6]",11,32,483,32,2017_Jul_05_1740,59.9840158866,Calib,001,test,
"[-1, -1, 0.65]",11,33,484,33,2017_Jul_05_1740,59.9840158866,Calib,001,test,
"[-1, -1, 0.7]",11,34,485,34,2017_Jul_05_1740,59.9840158866,Calib,001,test,
"[-1, -1, 0.75]",11,35,486,35,2017_Jul_05_1740,59.9840158866,Calib,001,test,
"[-1, -1, 0.8]",11,36,487,36,2017_Jul_05_1740,59.9840158866,Calib,001,test,
"[-1, -1, 0.85]",11,37,488,37,2017_Jul_05_1740,59.9840158866,Calib,001,test,
"[-1, -1, 0.9]",11,38,489,38,2017_Jul_05_1740,59.9840158866,Calib,001,test,
"[-1, -1, 0.95]",11,39,490,39,2017_Jul_05_1740,59.9840158866,Calib,001,test,
"[-1, -1, 1]",11,40,491,40,2017_Jul_05_1740,59.9840158866,Calib,001,test,
"[-1, -1, -1]",12,0,492,0,2017_Jul_05_1740,59.9840158866,Calib,001,test,
"[-1, -1, -0.95]",12,1,493,1,2017_Jul_05_1740,59.9840158866,Calib,001,test,
"[-1, -1, -0.9]",12,2,494,2,2017_Jul_05_1740,59.9840158866,Calib,001,test,
"[-1, -1, -0.85]",12,3,495,3,2017_Jul_05_1740,59.9840158866,Calib,001,test,
"[-1, -1, -0.8]",12,4,496,4,2017_Jul_05_1740,59.9840158866,Calib,001,test,
"[-1, -1, -0.75]",12,5,497,5,2017_Jul_05_1740,59.9840158866,Calib,001,test,
"[-1, -1, -0.7]",12,6,498,6,2017_Jul_05_1740,59.9840158866,Calib,001,test,
"[-1, -1, -0.65]",12,7,499,7,2017_Jul_05_1740,59.9840158866,Calib,001,test,
"[-1, -1, -0.6]",12,8,500,8,2017_Jul_05_1740,59.9840158866,Calib,001,test,
"[-1, -1, -0.55]",12,9,501,9,2017_Jul_05_1740,59.9840158866,Calib,001,test,
"[-1, -1, -0.5]",12,10,502,10,2017_Jul_05_1740,59.9840158866,Calib,001,test,
"[-1, -1, -0.45]",12,11,503,11,2017_Jul_05_1740,59.9840158866,Calib,001,test,
"[-1, -1, -0.4]",12,12,504,12,2017_Jul_05_1740,59.9840158866,Calib,001,test,
"[-1, -1, -0.35]",12,13,505,13,2017_Jul_05_1740,59.9840158866,Calib,001,test,
"[-1, -1, -0.3]",12,14,506,14,2017_Jul_05_1740,59.9840158866,Calib,001,test,
"[-1, -1, -0.25]",12,15,507,15,2017_Jul_05_1740,59.9840158866,Calib,001,test,
"[-1, -1, -0.2]",12,16,508,16,2017_Jul_05_1740,59.9840158866,Calib,001,test,
"[-1, -1, -0.15]",12,17,509,17,2017_Jul_05_1740,59.9840158866,Calib,001,test,
"[-1, -1, -0.1]",12,18,510,18,2017_Jul_05_1740,59.9840158866,Calib,001,test,
"[-1, -1, -0.05]",12,19,511,19,2017_Jul_05_1740,59.9840158866,Calib,001,test,
"[-1, -1, 0]",12,20,512,20,2017_Jul_05_1740,59.9840158866,Calib,001,test,
"[-1, -1, 0.05]",12,21,513,21,2017_Jul_05_1740,59.9840158866,Calib,001,test,
"[-1, -1, 0.1]",12,22,514,22,2017_Jul_05_1740,59.9840158866,Calib,001,test,
"[-1, -1, 0.15]",12,23,515,23,2017_Jul_05_1740,59.9840158866,Calib,001,test,
"[-1, -1, 0.2]",12,24,516,24,2017_Jul_05_1740,59.9840158866,Calib,001,test,
"[-1, -1, 0.25]",12,25,517,25,2017_Jul_05_1740,59.9840158866,Calib,001,test,
"[-1, -1, 0.3]",12,26,518,26,2017_Jul_05_1740,59.9840158866,Calib,001,test,
"[-1, -1, 0.35]",12,27,519,27,2017_Jul_05_1740,59.9840158866,Calib,001,test,
"[-1, -1, 0.4]",12,28,520,28,2017_Jul_05_1740,59.9840158866,Calib,001,test,
"[-1, -1, 0.45]",12,29,521,29,2017_Jul_05_1740,59.9840158866,Calib,001,test,
"[-1, -1, 0.5]",12,30,522,30,2017_Jul_05_1740,59.9840158866,Calib,001,test,
"[-1, -1, 0.55]",12,31,523,31,2017_Jul_05_1740,59.9840158866,Calib,001,test,
"[-1, -1, 0.6]",12,32,524,32,2017_Jul_05_1740,59.9840158866,Calib,001,test,
"[-1, -1, 0.65]",12,33,525,33,2017_Jul_05_1740,59.9840158866,Calib,001,test,
"[-1, -1, 0.7]",12,34,526,34,2017_Jul_05_1740,59.9840158866,Calib,001,test,
"[-1, -1, 0.75]",12,35,527,35,2017_Jul_05_1740,59.9840158866,Calib,001,test,
"[-1, -1, 0.8]",12,36,528,36,2017_Jul_05_1740,59.9840158866,Calib,001,test,
"[-1, -1, 0.85]",12,37,529,37,2017_Jul_05_1740,59.9840158866,Calib,001,test,
"[-1, -1, 0.9]",12,38,530,38,2017_Jul_05_1740,59.9840158866,Calib,001,test,
"[-1, -1, 0.95]",12,39,531,39,2017_Jul_05_1740,59.9840158866,Calib,001,test,
"[-1, -1, 1]",12,40,532,40,2017_Jul_05_1740,59.9840158866,Calib,001,test,
"[-1, -1, -1]",13,0,533,0,2017_Jul_05_1740,59.9840158866,Calib,001,test,
"[-1, -1, -0.95]",13,1,534,1,2017_Jul_05_1740,59.9840158866,Calib,001,test,
"[-1, -1, -0.9]",13,2,535,2,2017_Jul_05_1740,59.9840158866,Calib,001,test,
"[-1, -1, -0.85]",13,3,536,3,2017_Jul_05_1740,59.9840158866,Calib,001,test,
"[-1, -1, -0.8]",13,4,537,4,2017_Jul_05_1740,59.9840158866,Calib,001,test,
"[-1, -1, -0.75]",13,5,538,5,2017_Jul_05_1740,59.9840158866,Calib,001,test,
"[-1, -1, -0.7]",13,6,539,6,2017_Jul_05_1740,59.9840158866,Calib,001,test,
"[-1, -1, -0.65]",13,7,540,7,2017_Jul_05_1740,59.9840158866,Calib,001,test,
"[-1, -1, -0.6]",13,8,541,8,2017_Jul_05_1740,59.9840158866,Calib,001,test,
"[-1, -1, -0.55]",13,9,542,9,2017_Jul_05_1740,59.9840158866,Calib,001,test,
"[-1, -1, -0.5]",13,10,543,10,2017_Jul_05_1740,59.9840158866,Calib,001,test,
"[-1, -1, -0.45]",13,11,544,11,2017_Jul_05_1740,59.9840158866,Calib,001,test,
"[-1, -1, -0.4]",13,12,545,12,2017_Jul_05_1740,59.9840158866,Calib,001,test,
"[-1, -1, -0.35]",13,13,546,13,2017_Jul_05_1740,59.9840158866,Calib,001,test,
"[-1, -1, -0.3]",13,14,547,14,2017_Jul_05_1740,59.9840158866,Calib,001,test,
"[-1, -1, -0.25]",13,15,548,15,2017_Jul_05_1740,59.9840158866,Calib,001,test,
"[-1, -1, -0.2]",13,16,549,16,2017_Jul_05_1740,59.9840158866,Calib,001,test,
"[-1, -1, -0.15]",13,17,550,17,2017_Jul_05_1740,59.9840158866,Calib,001,test,
"[-1, -1, -0.1]",13,18,551,18,2017_Jul_05_1740,59.9840158866,Calib,001,test,
"[-1, -1, -0.05]",13,19,552,19,2017_Jul_05_1740,59.9840158866,Calib,001,test,
"[-1, -1, 0]",13,20,553,20,2017_Jul_05_1740,59.9840158866,Calib,001,test,
"[-1, -1, 0.05]",13,21,554,21,2017_Jul_05_1740,59.9840158866,Calib,001,test,
"[-1, -1, 0.1]",13,22,555,22,2017_Jul_05_1740,59.9840158866,Calib,001,test,
"[-1, -1, 0.15]",13,23,556,23,2017_Jul_05_1740,59.9840158866,Calib,001,test,
"[-1, -1, 0.2]",13,24,557,24,2017_Jul_05_1740,59.9840158866,Calib,001,test,
"[-1, -1, 0.25]",13,25,558,25,2017_Jul_05_1740,59.9840158866,Calib,001,test,
"[-1, -1, 0.3]",13,26,559,26,2017_Jul_05_1740,59.9840158866,Calib,001,test,
"[-1, -1, 0.35]",13,27,560,27,2017_Jul_05_1740,59.9840158866,Calib,001,test,
"[-1, -1, 0.4]",13,28,561,28,2017_Jul_05_1740,59.9840158866,Calib,001,test,
"[-1, -1, 0.45]",13,29,562,29,2017_Jul_05_1740,59.9840158866,Calib,001,test,
"[-1, -1, 0.5]",13,30,563,30,2017_Jul_05_1740,59.9840158866,Calib,001,test,
"[-1, -1, 0.55]",13,31,564,31,2017_Jul_05_1740,59.9840158866,Calib,001,test,
"[-1, -1, 0.6]",13,32,565,32,2017_Jul_05_1740,59.9840158866,Calib,001,test,
"[-1, -1, 0.65]",13,33,566,33,2017_Jul_05_1740,59.9840158866,Calib,001,test,
"[-1, -1, 0.7]",13,34,567,34,2017_Jul_05_1740,59.9840158866,Calib,001,test,
"[-1, -1, 0.75]",13,35,568,35,2017_Jul_05_1740,59.9840158866,Calib,001,test,
"[-1, -1, 0.8]",13,36,569,36,2017_Jul_05_1740,59.9840158866,Calib,001,test,
"[-1, -1, 0.85]",13,37,570,37,2017_Jul_05_1740,59.9840158866,Calib,001,test,
"[-1, -1, 0.9]",13,38,571,38,2017_Jul_05_1740,59.9840158866,Calib,001,test,
"[-1, -1, 0.95]",13,39,572,39,2017_Jul_05_1740,59.9840158866,Calib,001,test,
"[-1, -1, 1]",13,40,573,40,2017_Jul_05_1740,59.9840158866,Calib,001,test,
"[-1, -1, -1]",14,0,574,0,2017_Jul_05_1740,59.9840158866,Calib,001,test,
"[-1, -1, -0.95]",14,1,575,1,2017_Jul_05_1740,59.9840158866,Calib,001,test,
"[-1, -1, -0.9]",14,2,576,2,2017_Jul_05_1740,59.9840158866,Calib,001,test,
"[-1, -1, -0.85]",14,3,577,3,2017_Jul_05_1740,59.9840158866,Calib,001,test,
"[-1, -1, -0.8]",14,4,578,4,2017_Jul_05_1740,59.9840158866,Calib,001,test,
"[-1, -1, -0.75]",14,5,579,5,2017_Jul_05_1740,59.9840158866,Calib,001,test,
"[-1, -1, -0.7]",14,6,580,6,2017_Jul_05_1740,59.9840158866,Calib,001,test,
"[-1, -1, -0.65]",14,7,581,7,2017_Jul_05_1740,59.9840158866,Calib,001,test,
"[-1, -1, -0.6]",14,8,582,8,2017_Jul_05_1740,59.9840158866,Calib,001,test,
"[-1, -1, -0.55]",14,9,583,9,2017_Jul_05_1740,59.9840158866,Calib,001,test,
"[-1, -1, -0.5]",14,10,584,10,2017_Jul_05_1740,59.9840158866,Calib,001,test,
"[-1, -1, -0.45]",14,11,585,11,2017_Jul_05_1740,59.9840158866,Calib,001,test,
"[-1, -1, -0.4]",14,12,586,12,2017_Jul_05_1740,59.9840158866,Calib,001,test,
"[-1, -1, -0.35]",14,13,587,13,2017_Jul_05_1740,59.9840158866,Calib,001,test,
"[-1, -1, -0.3]",14,14,588,14,2017_Jul_05_1740,59.9840158866,Calib,001,test,
"[-1, -1, -0.25]",14,15,589,15,2017_Jul_05_1740,59.9840158866,Calib,001,test,
"[-1, -1, -0.2]",14,16,590,16,2017_Jul_05_1740,59.9840158866,Calib,001,test,
"[-1, -1, -0.15]",14,17,591,17,2017_Jul_05_1740,59.9840158866,Calib,001,test,
"[-1, -1, -0.1]",14,18,592,18,2017_Jul_05_1740,59.9840158866,Calib,001,test,
"[-1, -1, -0.05]",14,19,593,19,2017_Jul_05_1740,59.9840158866,Calib,001,test,
"[-1, -1, 0]",14,20,594,20,2017_Jul_05_1740,59.9840158866,Calib,001,test,
"[-1, -1, 0.05]",14,21,595,21,2017_Jul_05_1740,59.9840158866,Calib,001,test,
"[-1, -1, 0.1]",14,22,596,22,2017_Jul_05_1740,59.9840158866,Calib,001,test,
"[-1, -1, 0.15]",14,23,597,23,2017_Jul_05_1740,59.9840158866,Calib,001,test,
"[-1, -1, 0.2]",14,24,598,24,2017_Jul_05_1740,59.9840158866,Calib,001,test,
"[-1, -1, 0.25]",14,25,599,25,2017_Jul_05_1740,59.9840158866,Calib,001,test,
"[-1, -1, 0.3]",14,26,600,26,2017_Jul_05_1740,59.9840158866,Calib,001,test,
"[-1, -1, 0.35]",14,27,601,27,2017_Jul_05_1740,59.9840158866,Calib,001,test,
"[-1, -1, 0.4]",14,28,602,28,2017_Jul_05_1740,59.9840158866,Calib,001,test,
"[-1, -1, 0.45]",14,29,603,29,2017_Jul_05_1740,59.9840158866,Calib,001,test,
"[-1, -1, 0.5]",14,30,604,30,2017_Jul_05_1740,59.9840158866,Calib,001,test,
"[-1, -1, 0.55]",14,31,605,31,2017_Jul_05_1740,59.9840158866,Calib,001,test,
"[-1, -1, 0.6]",14,32,606,32,2017_Jul_05_1740,59.9840158866,Calib,001,test,
"[-1, -1, 0.65]",14,33,607,33,2017_Jul_05_1740,59.9840158866,Calib,001,test,
"[-1, -1, 0.7]",14,34,608,34,2017_Jul_05_1740,59.9840158866,Calib,001,test,
"[-1, -1, 0.75]",14,35,609,35,2017_Jul_05_1740,59.9840158866,Calib,001,test,
"[-1, -1, 0.8]",14,36,610,36,2017_Jul_05_1740,59.9840158866,Calib,001,test,
"[-1, -1, 0.85]",14,37,611,37,2017_Jul_05_1740,59.9840158866,Calib,001,test,
"[-1, -1, 0.9]",14,38,612,38,2017_Jul_05_1740,59.9840158866,Calib,001,test,
"[-1, -1, 0.95]",14,39,613,39,2017_Jul_05_1740,59.9840158866,Calib,001,test,
"[-1, -1, 1]",14,40,614,40,2017_Jul_05_1740,59.9840158866,Calib,001,test,
"[-1, -1, -1]",15,0,615,0,2017_Jul_05_1740,59.9840158866,Calib,001,test,
"[-1, -1, -0.95]",15,1,616,1,2017_Jul_05_1740,59.9840158866,Calib,001,test,
"[-1, -1, -0.9]",15,2,617,2,2017_Jul_05_1740,59.9840158866,Calib,001,test,
"[-1, -1, -0.85]",15,3,618,3,2017_Jul_05_1740,59.9840158866,Calib,001,test,
"[-1, -1, -0.8]",15,4,619,4,2017_Jul_05_1740,59.9840158866,Calib,001,test,
"[-1, -1, -0.75]",15,5,620,5,2017_Jul_05_1740,59.9840158866,Calib,001,test,
"[-1, -1, -0.7]",15,6,621,6,2017_Jul_05_1740,59.9840158866,Calib,001,test,
"[-1, -1, -0.65]",15,7,622,7,2017_Jul_05_1740,59.9840158866,Calib,001,test,
"[-1, -1, -0.6]",15,8,623,8,2017_Jul_05_1740,59.9840158866,Calib,001,test,
"[-1, -1, -0.55]",15,9,624,9,2017_Jul_05_1740,59.9840158866,Calib,001,test,
"[-1, -1, -0.5]",15,10,625,10,2017_Jul_05_1740,59.9840158866,Calib,001,test,
"[-1, -1, -0.45]",15,11,626,11,2017_Jul_05_1740,59.9840158866,Calib,001,test,
"[-1, -1, -0.4]",15,12,627,12,2017_Jul_05_1740,59.9840158866,Calib,001,test,
"[-1, -1, -0.35]",15,13,628,13,2017_Jul_05_1740,59.9840158866,Calib,001,test,
"[-1, -1, -0.3]",15,14,629,14,2017_Jul_05_1740,59.9840158866,Calib,001,test,
"[-1, -1, -0.25]",15,15,630,15,2017_Jul_05_1740,59.9840158866,Calib,001,test,
"[-1, -1, -0.2]",15,16,631,16,2017_Jul_05_1740,59.9840158866,Calib,001,test,
"[-1, -1, -0.15]",15,17,632,17,2017_Jul_05_1740,59.9840158866,Calib,001,test,
"[-1, -1, -0.1]",15,18,633,18,2017_Jul_05_1740,59.9840158866,Calib,001,test,
"[-1, -1, -0.05]",15,19,634,19,2017_Jul_05_1740,59.9840158866,Calib,001,test,
"[-1, -1, 0]",15,20,635,20,2017_Jul_05_1740,59.9840158866,Calib,001,test,
"[-1, -1, 0.05]",15,21,636,21,2017_Jul_05_1740,59.9840158866,Calib,001,test,
"[-1, -1, 0.1]",15,22,637,22,2017_Jul_05_1740,59.9840158866,Calib,001,test,
"[-1, -1, 0.15]",15,23,638,23,2017_Jul_05_1740,59.9840158866,Calib,001,test,
"[-1, -1, 0.2]",15,24,639,24,2017_Jul_05_1740,59.9840158866,Calib,001,test,
"[-1, -1, 0.25]",15,25,640,25,2017_Jul_05_1740,59.9840158866,Calib,001,test,
"[-1, -1, 0.3]",15,26,641,26,2017_Jul_05_1740,59.9840158866,Calib,001,test,
"[-1, -1, 0.35]",15,27,642,27,2017_Jul_05_1740,59.9840158866,Calib,001,test,
"[-1, -1, 0.4]",15,28,643,28,2017_Jul_05_1740,59.9840158866,Calib,001,test,
"[-1, -1, 0.45]",15,29,644,29,2017_Jul_05_1740,59.9840158866,Calib,001,test,
"[-1, -1, 0.5]",15,30,645,30,2017_Jul_05_1740,59.9840158866,Calib,001,test,
"[-1, -1, 0.55]",15,31,646,31,2017_Jul_05_1740,59.9840158866,Calib,001,test,
"[-1, -1, 0.6]",15,32,647,32,2017_Jul_05_1740,59.9840158866,Calib,001,test,
"[-1, -1, 0.65]",15,33,648,33,2017_Jul_05_1740,59.9840158866,Calib,001,test,
"[-1, -1, 0.7]",15,34,649,34,2017_Jul_05_1740,59.9840158866,Calib,001,test,
"[-1, -1, 0.75]",15,35,650,35,2017_Jul_05_1740,59.9840158866,Calib,001,test,
"[-1, -1, 0.8]",15,36,651,36,2017_Jul_05_1740,59.9840158866,Calib,001,test,
"[-1, -1, 0.85]",15,37,652,37,2017_Jul_05_1740,59.9840158866,Calib,001,test,
"[-1, -1, 0.9]",15,38,653,38,2017_Jul_05_1740,59.9840158866,Calib,001,test,
"[-1, -1, 0.95]",15,39,654,39,2017_Jul_05_1740,59.9840158866,Calib,001,test,
"[-1, -1, 1]",15,40,655,40,2017_Jul_05_1740,59.9840158866,Calib,001,test,
"[-1, -1, -1]",16,0,656,0,2017_Jul_05_1740,59.9840158866,Calib,001,test,
"[-1, -1, -0.95]",16,1,657,1,2017_Jul_05_1740,59.9840158866,Calib,001,test,
"[-1, -1, -0.9]",16,2,658,2,2017_Jul_05_1740,59.9840158866,Calib,001,test,
"[-1, -1, -0.85]",16,3,659,3,2017_Jul_05_1740,59.9840158866,Calib,001,test,
"[-1, -1, -0.8]",16,4,660,4,2017_Jul_05_1740,59.9840158866,Calib,001,test,
"[-1, -1, -0.75]",16,5,661,5,2017_Jul_05_1740,59.9840158866,Calib,001,test,
"[-1, -1, -0.7]",16,6,662,6,2017_Jul_05_1740,59.9840158866,Calib,001,test,
"[-1, -1, -0.65]",16,7,663,7,2017_Jul_05_1740,59.9840158866,Calib,001,test,
"[-1, -1, -0.6]",16,8,664,8,2017_Jul_05_1740,59.9840158866,Calib,001,test,
"[-1, -1, -0.55]",16,9,665,9,2017_Jul_05_1740,59.9840158866,Calib,001,test,
"[-1, -1, -0.5]",16,10,666,10,2017_Jul_05_1740,59.9840158866,Calib,001,test,
"[-1, -1, -0.45]",16,11,667,11,2017_Jul_05_1740,59.9840158866,Calib,001,test,
"[-1, -1, -0.4]",16,12,668,12,2017_Jul_05_1740,59.9840158866,Calib,001,test,
"[-1, -1, -0.35]",16,13,669,13,2017_Jul_05_1740,59.9840158866,Calib,001,test,
"[-1, -1, -0.3]",16,14,670,14,2017_Jul_05_1740,59.9840158866,Calib,001,test,
"[-1, -1, -0.25]",16,15,671,15,2017_Jul_05_1740,59.9840158866,Calib,001,test,
"[-1, -1, -0.2]",16,16,672,16,2017_Jul_05_1740,59.9840158866,Calib,001,test,
"[-1, -1, -0.15]",16,17,673,17,2017_Jul_05_1740,59.9840158866,Calib,001,test,
"[-1, -1, -0.1]",16,18,674,18,2017_Jul_05_1740,59.9840158866,Calib,001,test,
"[-1, -1, -0.05]",16,19,675,19,2017_Jul_05_1740,59.9840158866,Calib,001,test,
"[-1, -1, 0]",16,20,676,20,2017_Jul_05_1740,59.9840158866,Calib,001,test,
"[-1, -1, 0.05]",16,21,677,21,2017_Jul_05_1740,59.9840158866,Calib,001,test,
"[-1, -1, 0.1]",16,22,678,22,2017_Jul_05_1740,59.9840158866,Calib,001,test,
"[-1, -1, 0.15]",16,23,679,23,2017_Jul_05_1740,59.9840158866,Calib,001,test,
"[-1, -1, 0.2]",16,24,680,24,2017_Jul_05_1740,59.9840158866,Calib,001,test,
"[-1, -1, 0.25]",16,25,681,25,2017_Jul_05_1740,59.9840158866,Calib,001,test,
"[-1, -1, 0.3]",16,26,682,26,2017_Jul_05_1740,59.9840158866,Calib,001,test,
"[-1, -1, 0.35]",16,27,683,27,2017_Jul_05_1740,59.9840158866,Calib,001,test,
"[-1, -1, 0.4]",16,28,684,28,2017_Jul_05_1740,59.9840158866,Calib,001,test,
"[-1, -1, 0.45]",16,29,685,29,2017_Jul_05_1740,59.9840158866,Calib,001,test,
"[-1, -1, 0.5]",16,30,686,30,2017_Jul_05_1740,59.9840158866,Calib,001,test,
"[-1, -1, 0.55]",16,31,687,31,2017_Jul_05_1740,59.9840158866,Calib,001,test,
"[-1, -1, 0.6]",16,32,688,32,2017_Jul_05_1740,59.9840158866,Calib,001,test,
"[-1, -1, 0.65]",16,33,689,33,2017_Jul_05_1740,59.9840158866,Calib,001,test,
"[-1, -1, 0.7]",16,34,690,34,2017_Jul_05_1740,59.9840158866,Calib,001,test,
"[-1, -1, 0.75]",16,35,691,35,2017_Jul_05_1740,59.9840158866,Calib,001,test,
"[-1, -1, 0.8]",16,36,692,36,2017_Jul_05_1740,59.9840158866,Calib,001,test,
"[-1, -1, 0.85]",16,37,693,37,2017_Jul_05_1740,59.9840158866,Calib,001,test,
"[-1, -1, 0.9]",16,38,694,38,2017_Jul_05_1740,59.9840158866,Calib,001,test,
"[-1, -1, 0.95]",16,39,695,39,2017_Jul_05_1740,59.9840158866,Calib,001,test,
"[-1, -1, 1]",16,40,696,40,2017_Jul_05_1740,59.9840158866,Calib,001,test,
"[-1, -1, -1]",17,0,697,0,2017_Jul_05_1740,59.9840158866,Calib,001,test,
"[-1, -1, -0.95]",17,1,698,1,2017_Jul_05_1740,59.9840158866,Calib,001,test,
"[-1, -1, -0.9]",17,2,699,2,2017_Jul_05_1740,59.9840158866,Calib,001,test,
"[-1, -1, -0.85]",17,3,700,3,2017_Jul_05_1740,59.9840158866,Calib,001,test,
"[-1, -1, -0.8]",17,4,701,4,2017_Jul_05_1740,59.9840158866,Calib,001,test,
"[-1, -1, -0.75]",17,5,702,5,2017_Jul_05_1740,59.9840158866,Calib,001,test,
"[-1, -1, -0.7]",17,6,703,6,2017_Jul_05_1740,59.9840158866,Calib,001,test,
"[-1, -1, -0.65]",17,7,704,7,2017_Jul_05_1740,59.9840158866,Calib,001,test,
"[-1, -1, -0.6]",17,8,705,8,2017_Jul_05_1740,59.9840158866,Calib,001,test,
"[-1, -1, -0.55]",17,9,706,9,2017_Jul_05_1740,59.9840158866,Calib,001,test,
"[-1, -1, -0.5]",17,10,707,10,2017_Jul_05_1740,59.9840158866,Calib,001,test,
"[-1, -1, -0.45]",17,11,708,11,2017_Jul_05_1740,59.9840158866,Calib,001,test,
"[-1, -1, -0.4]",17,12,709,12,2017_Jul_05_1740,59.9840158866,Calib,001,test,
"[-1, -1, -0.35]",17,13,710,13,2017_Jul_05_1740,59.9840158866,Calib,001,test,
"[-1, -1, -0.3]",17,14,711,14,2017_Jul_05_1740,59.9840158866,Calib,001,test,
"[-1, -1, -0.25]",17,15,712,15,2017_Jul_05_1740,59.9840158866,Calib,001,test,
"[-1, -1, -0.2]",17,16,713,16,2017_Jul_05_1740,59.9840158866,Calib,001,test,
"[-1, -1, -0.15]",17,17,714,17,2017_Jul_05_1740,59.9840158866,Calib,001,test,
"[-1, -1, -0.1]",17,18,715,18,2017_Jul_05_1740,59.9840158866,Calib,001,test,
"[-1, -1, -0.05]",17,19,716,19,2017_Jul_05_1740,59.9840158866,Calib,001,test,
"[-1, -1, 0]",17,20,717,20,2017_Jul_05_1740,59.9840158866,Calib,001,test,
"[-1, -1, 0.05]",17,21,718,21,2017_Jul_05_1740,59.9840158866,Calib,001,test,
"[-1, -1, 0.1]",17,22,719,22,2017_Jul_05_1740,59.9840158866,Calib,001,test,
"[-1, -1, 0.15]",17,23,720,23,2017_Jul_05_1740,59.9840158866,Calib,001,test,
"[-1, -1, 0.2]",17,24,721,24,2017_Jul_05_1740,59.9840158866,Calib,001,test,
"[-1, -1, 0.25]",17,25,722,25,2017_Jul_05_1740,59.9840158866,Calib,001,test,
"[-1, -1, 0.3]",17,26,723,26,2017_Jul_05_1740,59.9840158866,Calib,001,test,
"[-1, -1, 0.35]",17,27,724,27,2017_Jul_05_1740,59.9840158866,Calib,001,test,
"[-1, -1, 0.4]",17,28,725,28,2017_Jul_05_1740,59.9840158866,Calib,001,test,
"[-1, -1, 0.45]",17,29,726,29,2017_Jul_05_1740,59.9840158866,Calib,001,test,
"[-1, -1, 0.5]",17,30,727,30,2017_Jul_05_1740,59.9840158866,Calib,001,test,
"[-1, -1, 0.55]",17,31,728,31,2017_Jul_05_1740,59.9840158866,Calib,001,test,
"[-1, -1, 0.6]",17,32,729,32,2017_Jul_05_1740,59.9840158866,Calib,001,test,
"[-1, -1, 0.65]",17,33,730,33,2017_Jul_05_1740,59.9840158866,Calib,001,test,
"[-1, -1, 0.7]",17,34,731,34,2017_Jul_05_1740,59.9840158866,Calib,001,test,
"[-1, -1, 0.75]",17,35,732,35,2017_Jul_05_1740,59.9840158866,Calib,001,test,
"[-1, -1, 0.8]",17,36,733,36,2017_Jul_05_1740,59.9840158866,Calib,001,test,
"[-1, -1, 0.85]",17,37,734,37,2017_Jul_05_1740,59.9840158866,Calib,001,test,
"[-1, -1, 0.9]",17,38,735,38,2017_Jul_05_1740,59.9840158866,Calib,001,test,
"[-1, -1, 0.95]",17,39,736,39,2017_Jul_05_1740,59.9840158866,Calib,001,test,
"[-1, -1, 1]",17,40,737,40,2017_Jul_05_1740,59.9840158866,Calib,001,test,
"[-1, -1, -1]",18,0,738,0,2017_Jul_05_1740,59.9840158866,Calib,001,test,
"[-1, -1, -0.95]",18,1,739,1,2017_Jul_05_1740,59.9840158866,Calib,001,test,
"[-1, -1, -0.9]",18,2,740,2,2017_Jul_05_1740,59.9840158866,Calib,001,test,
"[-1, -1, -0.85]",18,3,741,3,2017_Jul_05_1740,59.9840158866,Calib,001,test,
"[-1, -1, -0.8]",18,4,742,4,2017_Jul_05_1740,59.9840158866,Calib,001,test,
"[-1, -1, -0.75]",18,5,743,5,2017_Jul_05_1740,59.9840158866,Calib,001,test,
"[-1, -1, -0.7]",18,6,744,6,2017_Jul_05_1740,59.9840158866,Calib,001,test,
"[-1, -1, -0.65]",18,7,745,7,2017_Jul_05_1740,59.9840158866,Calib,001,test,
"[-1, -1, -0.6]",18,8,746,8,2017_Jul_05_1740,59.9840158866,Calib,001,test,
"[-1, -1, -0.55]",18,9,747,9,2017_Jul_05_1740,59.9840158866,Calib,001,test,
"[-1, -1, -0.5]",18,10,748,10,2017_Jul_05_1740,59.9840158866,Calib,001,test,
"[-1, -1, -0.45]",18,11,749,11,2017_Jul_05_1740,59.9840158866,Calib,001,test,
"[-1, -1, -0.4]",18,12,750,12,2017_Jul_05_1740,59.9840158866,Calib,001,test,
"[-1, -1, -0.35]",18,13,751,13,2017_Jul_05_1740,59.9840158866,Calib,001,test,
"[-1, -1, -0.3]",18,14,752,14,2017_Jul_05_1740,59.9840158866,Calib,001,test,
"[-1, -1, -0.25]",18,15,753,15,2017_Jul_05_1740,59.9840158866,Calib,001,test,
"[-1, -1, -0.2]",18,16,754,16,2017_Jul_05_1740,59.9840158866,Calib,001,test,
"[-1, -1, -0.15]",18,17,755,17,2017_Jul_05_1740,59.9840158866,Calib,001,test,
"[-1, -1, -0.1]",18,18,756,18,2017_Jul_05_1740,59.9840158866,Calib,001,test,
"[-1, -1, -0.05]",18,19,757,19,2017_Jul_05_1740,59.9840158866,Calib,001,test,
"[-1, -1, 0]",18,20,758,20,2017_Jul_05_1740,59.9840158866,Calib,001,test,
"[-1, -1, 0.05]",18,21,759,21,2017_Jul_05_1740,59.9840158866,Calib,001,test,
"[-1, -1, 0.1]",18,22,760,22,2017_Jul_05_1740,59.9840158866,Calib,001,test,
"[-1, -1, 0.15]",18,23,761,23,2017_Jul_05_1740,59.9840158866,Calib,001,test,
"[-1, -1, 0.2]",18,24,762,24,2017_Jul_05_1740,59.9840158866,Calib,001,test,
"[-1, -1, 0.25]",18,25,763,25,2017_Jul_05_1740,59.9840158866,Calib,001,test,
"[-1, -1, 0.3]",18,26,764,26,2017_Jul_05_1740,59.9840158866,Calib,001,test,
"[-1, -1, 0.35]",18,27,765,27,2017_Jul_05_1740,59.9840158866,Calib,001,test,
"[-1, -1, 0.4]",18,28,766,28,2017_Jul_05_1740,59.9840158866,Calib,001,test,
"[-1, -1, 0.45]",18,29,767,29,2017_Jul_05_1740,59.9840158866,Calib,001,test,
"[-1, -1, 0.5]",18,30,768,30,2017_Jul_05_1740,59.9840158866,Calib,001,test,
"[-1, -1, 0.55]",18,31,769,31,2017_Jul_05_1740,59.9840158866,Calib,001,test,
"[-1, -1, 0.6]",18,32,770,32,2017_Jul_05_1740,59.9840158866,Calib,001,test,
"[-1, -1, 0.65]",18,33,771,33,2017_Jul_05_1740,59.9840158866,Calib,001,test,
"[-1, -1, 0.7]",18,34,772,34,2017_Jul_05_1740,59.9840158866,Calib,001,test,
"[-1, -1, 0.75]",18,35,773,35,2017_Jul_05_1740,59.9840158866,Calib,001,test,
"[-1, -1, 0.8]",18,36,774,36,2017_Jul_05_1740,59.9840158866,Calib,001,test,
"[-1, -1, 0.85]",18,37,775,37,2017_Jul_05_1740,59.9840158866,Calib,001,test,
"[-1, -1, 0.9]",18,38,776,38,2017_Jul_05_1740,59.9840158866,Calib,001,test,
"[-1, -1, 0.95]",18,39,777,39,2017_Jul_05_1740,59.9840158866,Calib,001,test,
"[-1, -1, 1]",18,40,778,40,2017_Jul_05_1740,59.9840158866,Calib,001,test,
"[-1, -1, -1]",19,0,779,0,2017_Jul_05_1740,59.9840158866,Calib,001,test,
"[-1, -1, -0.95]",19,1,780,1,2017_Jul_05_1740,59.9840158866,Calib,001,test,
"[-1, -1, -0.9]",19,2,781,2,2017_Jul_05_1740,59.9840158866,Calib,001,test,
"[-1, -1, -0.85]",19,3,782,3,2017_Jul_05_1740,59.9840158866,Calib,001,test,
"[-1, -1, -0.8]",19,4,783,4,2017_Jul_05_1740,59.9840158866,Calib,001,test,
"[-1, -1, -0.75]",19,5,784,5,2017_Jul_05_1740,59.9840158866,Calib,001,test,
"[-1, -1, -0.7]",19,6,785,6,2017_Jul_05_1740,59.9840158866,Calib,001,test,
"[-1, -1, -0.65]",19,7,786,7,2017_Jul_05_1740,59.9840158866,Calib,001,test,
"[-1, -1, -0.6]",19,8,787,8,2017_Jul_05_1740,59.9840158866,Calib,001,test,
"[-1, -1, -0.55]",19,9,788,9,2017_Jul_05_1740,59.9840158866,Calib,001,test,
"[-1, -1, -0.5]",19,10,789,10,2017_Jul_05_1740,59.9840158866,Calib,001,test,
"[-1, -1, -0.45]",19,11,790,11,2017_Jul_05_1740,59.9840158866,Calib,001,test,
"[-1, -1, -0.4]",19,12,791,12,2017_Jul_05_1740,59.9840158866,Calib,001,test,
"[-1, -1, -0.35]",19,13,792,13,2017_Jul_05_1740,59.9840158866,Calib,001,test,
"[-1, -1, -0.3]",19,14,793,14,2017_Jul_05_1740,59.9840158866,Calib,001,test,
"[-1, -1, -0.25]",19,15,794,15,2017_Jul_05_1740,59.9840158866,Calib,001,test,
"[-1, -1, -0.2]",19,16,795,16,2017_Jul_05_1740,59.9840158866,Calib,001,test,
"[-1, -1, -0.15]",19,17,796,17,2017_Jul_05_1740,59.9840158866,Calib,001,test,
"[-1, -1, -0.1]",19,18,797,18,2017_Jul_05_1740,59.9840158866,Calib,001,test,
"[-1, -1, -0.05]",19,19,798,19,2017_Jul_05_1740,59.9840158866,Calib,001,test,
"[-1, -1, 0]",19,20,799,20,2017_Jul_05_1740,59.9840158866,Calib,001,test,
"[-1, -1, 0.05]",19,21,800,21,2017_Jul_05_1740,59.9840158866,Calib,001,test,
"[-1, -1, 0.1]",19,22,801,22,2017_Jul_05_1740,59.9840158866,Calib,001,test,
"[-1, -1, 0.15]",19,23,802,23,2017_Jul_05_1740,59.9840158866,Calib,001,test,
"[-1, -1, 0.2]",19,24,803,24,2017_Jul_05_1740,59.9840158866,Calib,001,test,
"[-1, -1, 0.25]",19,25,804,25,2017_Jul_05_1740,59.9840158866,Calib,001,test,
"[-1, -1, 0.3]",19,26,805,26,2017_Jul_05_1740,59.9840158866,Calib,001,test,
"[-1, -1, 0.35]",19,27,806,27,2017_Jul_05_1740,59.9840158866,Calib,001,test,
"[-1, -1, 0.4]",19,28,807,28,2017_Jul_05_1740,59.9840158866,Calib,001,test,
"[-1, -1, 0.45]",19,29,808,29,2017_Jul_05_1740,59.9840158866,Calib,001,test,
"[-1, -1, 0.5]",19,30,809,30,2017_Jul_05_1740,59.9840158866,Calib,001,test,
"[-1, -1, 0.55]",19,31,810,31,2017_Jul_05_1740,59.9840158866,Calib,001,test,
"[-1, -1, 0.6]",19,32,811,32,2017_Jul_05_1740,59.9840158866,Calib,001,test,
"[-1, -1, 0.65]",19,33,812,33,2017_Jul_05_1740,59.9840158866,Calib,001,test,
"[-1, -1, 0.7]",19,34,813,34,2017_Jul_05_1740,59.9840158866,Calib,001,test,
"[-1, -1, 0.75]",19,35,814,35,2017_Jul_05_1740,59.9840158866,Calib,001,test,
"[-1, -1, 0.8]",19,36,815,36,2017_Jul_05_1740,59.9840158866,Calib,001,test,
"[-1, -1, 0.85]",19,37,816,37,2017_Jul_05_1740,59.9840158866,Calib,001,test,
"[-1, -1, 0.9]",19,38,817,38,2017_Jul_05_1740,59.9840158866,Calib,001,test,
"[-1, -1, 0.95]",19,39,818,39,2017_Jul_05_1740,59.9840158866,Calib,001,test,
"[-1, -1, 1]",19,40,819,40,2017_Jul_05_1740,59.9840158866,Calib,001,test,
"[-1, -1, -1]",20,0,820,0,2017_Jul_05_1740,59.9840158866,Calib,001,test,
"[-1, -1, -0.95]",20,1,821,1,2017_Jul_05_1740,59.9840158866,Calib,001,test,
"[-1, -1, -0.9]",20,2,822,2,2017_Jul_05_1740,59.9840158866,Calib,001,test,
"[-1, -1, -0.85]",20,3,823,3,2017_Jul_05_1740,59.9840158866,Calib,001,test,
"[-1, -1, -0.8]",20,4,824,4,2017_Jul_05_1740,59.9840158866,Calib,001,test,
"[-1, -1, -0.75]",20,5,825,5,2017_Jul_05_1740,59.9840158866,Calib,001,test,
"[-1, -1, -0.7]",20,6,826,6,2017_Jul_05_1740,59.9840158866,Calib,001,test,
"[-1, -1, -0.65]",20,7,827,7,2017_Jul_05_1740,59.9840158866,Calib,001,test,
"[-1, -1, -0.6]",20,8,828,8,2017_Jul_05_1740,59.9840158866,Calib,001,test,
"[-1, -1, -0.55]",20,9,829,9,2017_Jul_05_1740,59.9840158866,Calib,001,test,
"[-1, -1, -0.5]",20,10,830,10,2017_Jul_05_1740,59.9840158866,Calib,001,test,
"[-1, -1, -0.45]",20,11,831,11,2017_Jul_05_1740,59.9840158866,Calib,001,test,
"[-1, -1, -0.4]",20,12,832,12,2017_Jul_05_1740,59.9840158866,Calib,001,test,
"[-1, -1, -0.35]",20,13,833,13,2017_Jul_05_1740,59.9840158866,Calib,001,test,
"[-1, -1, -0.3]",20,14,834,14,2017_Jul_05_1740,59.9840158866,Calib,001,test,
"[-1, -1, -0.25]",20,15,835,15,2017_Jul_05_1740,59.9840158866,Calib,001,test,
"[-1, -1, -0.2]",20,16,836,16,2017_Jul_05_1740,59.9840158866,Calib,001,test,
"[-1, -1, -0.15]",20,17,837,17,2017_Jul_05_1740,59.9840158866,Calib,001,test,
"[-1, -1, -0.1]",20,18,838,18,2017_Jul_05_1740,59.9840158866,Calib,001,test,
"[-1, -1, -0.05]",20,19,839,19,2017_Jul_05_1740,59.9840158866,Calib,001,test,
"[-1, -1, 0]",20,20,840,20,2017_Jul_05_1740,59.9840158866,Calib,001,test,
"[-1, -1, 0.05]",20,21,841,21,2017_Jul_05_1740,59.9840158866,Calib,001,test,
"[-1, -1, 0.1]",20,22,842,22,2017_Jul_05_1740,59.9840158866,Calib,001,test,
"[-1, -1, 0.15]",20,23,843,23,2017_Jul_05_1740,59.9840158866,Calib,001,test,
"[-1, -1, 0.2]",20,24,844,24,2017_Jul_05_1740,59.9840158866,Calib,001,test,
"[-1, -1, 0.25]",20,25,845,25,2017_Jul_05_1740,59.9840158866,Calib,001,test,
"[-1, -1, 0.3]",20,26,846,26,2017_Jul_05_1740,59.9840158866,Calib,001,test,
"[-1, -1, 0.35]",20,27,847,27,2017_Jul_05_1740,59.9840158866,Calib,001,test,
"[-1, -1, 0.4]",20,28,848,28,2017_Jul_05_1740,59.9840158866,Calib,001,test,
"[-1, -1, 0.45]",20,29,849,29,2017_Jul_05_1740,59.9840158866,Calib,001,test,
"[-1, -1, 0.5]",20,30,850,30,2017_Jul_05_1740,59.9840158866,Calib,001,test,
"[-1, -1, 0.55]",20,31,851,31,2017_Jul_05_1740,59.9840158866,Calib,001,test,
"[-1, -1, 0.6]",20,32,852,32,2017_Jul_05_1740,59.9840158866,Calib,001,test,
"[-1, -1, 0.65]",20,33,853,33,2017_Jul_05_1740,59.9840158866,Calib,001,test,
"[-1, -1, 0.7]",20,34,854,34,2017_Jul_05_1740,59.9840158866,Calib,001,test,
"[-1, -1, 0.75]",20,35,855,35,2017_Jul_05_1740,59.9840158866,Calib,001,test,
"[-1, -1, 0.8]",20,36,856,36,2017_Jul_05_1740,59.9840158866,Calib,001,test,
"[-1, -1, 0.85]",20,37,857,37,2017_Jul_05_1740,59.9840158866,Calib,001,test,
"[-1, -1, 0.9]",20,38,858,38,2017_Jul_05_1740,59.9840158866,Calib,001,test,
"[-1, -1, 0.95]",20,39,859,39,2017_Jul_05_1740,59.9840158866,Calib,001,test,
"[-1, -1, 1]",20,40,860,40,2017_Jul_05_1740,59.9840158866,Calib,001,test,
"[-1, -1, -1]",21,0,861,0,2017_Jul_05_1740,59.9840158866,Calib,001,test,
"[-1, -1, -0.95]",21,1,862,1,2017_Jul_05_1740,59.9840158866,Calib,001,test,
"[-1, -1, -0.9]",21,2,863,2,2017_Jul_05_1740,59.9840158866,Calib,001,test,
"[-1, -1, -0.85]",21,3,864,3,2017_Jul_05_1740,59.9840158866,Calib,001,test,
"[-1, -1, -0.8]",21,4,865,4,2017_Jul_05_1740,59.9840158866,Calib,001,test,
"[-1, -1, -0.75]",21,5,866,5,2017_Jul_05_1740,59.9840158866,Calib,001,test,
"[-1, -1, -0.7]",21,6,867,6,2017_Jul_05_1740,59.9840158866,Calib,001,test,
"[-1, -1, -0.65]",21,7,868,7,2017_Jul_05_1740,59.9840158866,Calib,001,test,
"[-1, -1, -0.6]",21,8,869,8,2017_Jul_05_1740,59.9840158866,Calib,001,test,
"[-1, -1, -0.55]",21,9,870,9,2017_Jul_05_1740,59.9840158866,Calib,001,test,
"[-1, -1, -0.5]",21,10,871,10,2017_Jul_05_1740,59.9840158866,Calib,001,test,
"[-1, -1, -0.45]",21,11,872,11,2017_Jul_05_1740,59.9840158866,Calib,001,test,
"[-1, -1, -0.4]",21,12,873,12,2017_Jul_05_1740,59.9840158866,Calib,001,test,
"[-1, -1, -0.35]",21,13,874,13,2017_Jul_05_1740,59.9840158866,Calib,001,test,
"[-1, -1, -0.3]",21,14,875,14,2017_Jul_05_1740,59.9840158866,Calib,001,test,
"[-1, -1, -0.25]",21,15,876,15,2017_Jul_05_1740,59.9840158866,Calib,001,test,
"[-1, -1, -0.2]",21,16,877,16,2017_Jul_05_1740,59.9840158866,Calib,001,test,
"[-1, -1, -0.15]",21,17,878,17,2017_Jul_05_1740,59.9840158866,Calib,001,test,
"[-1, -1, -0.1]",21,18,879,18,2017_Jul_05_1740,59.9840158866,Calib,001,test,
"[-1, -1, -0.05]",21,19,880,19,2017_Jul_05_1740,59.9840158866,Calib,001,test,
"[-1, -1, 0]",21,20,881,20,2017_Jul_05_1740,59.9840158866,Calib,001,test,
"[-1, -1, 0.05]",21,21,882,21,2017_Jul_05_1740,59.9840158866,Calib,001,test,
"[-1, -1, 0.1]",21,22,883,22,2017_Jul_05_1740,59.9840158866,Calib,001,test,
"[-1, -1, 0.15]",21,23,884,23,2017_Jul_05_1740,59.9840158866,Calib,001,test,
"[-1, -1, 0.2]",21,24,885,24,2017_Jul_05_1740,59.9840158866,Calib,001,test,
"[-1, -1, 0.25]",21,25,886,25,2017_Jul_05_1740,59.9840158866,Calib,001,test,
"[-1, -1, 0.3]",21,26,887,26,2017_Jul_05_1740,59.9840158866,Calib,001,test,
"[-1, -1, 0.35]",21,27,888,27,2017_Jul_05_1740,59.9840158866,Calib,001,test,
"[-1, -1, 0.4]",21,28,889,28,2017_Jul_05_1740,59.9840158866,Calib,001,test,
"[-1, -1, 0.45]",21,29,890,29,2017_Jul_05_1740,59.9840158866,Calib,001,test,
"[-1, -1, 0.5]",21,30,891,30,2017_Jul_05_1740,59.9840158866,Calib,001,test,
"[-1, -1, 0.55]",21,31,892,31,2017_Jul_05_1740,59.9840158866,Calib,001,test,
"[-1, -1, 0.6]",21,32,893,32,2017_Jul_05_1740,59.9840158866,Calib,001,test,
"[-1, -1, 0.65]",21,33,894,33,2017_Jul_05_1740,59.9840158866,Calib,001,test,
"[-1, -1, 0.7]",21,34,895,34,2017_Jul_05_1740,59.9840158866,Calib,001,test,
"[-1, -1, 0.75]",21,35,896,35,2017_Jul_05_1740,59.9840158866,Calib,001,test,
"[-1, -1, 0.8]",21,36,897,36,2017_Jul_05_1740,59.9840158866,Calib,001,test,
"[-1, -1, 0.85]",21,37,898,37,2017_Jul_05_1740,59.9840158866,Calib,001,test,
"[-1, -1, 0.9]",21,38,899,38,2017_Jul_05_1740,59.9840158866,Calib,001,test,
"[-1, -1, 0.95]",21,39,900,39,2017_Jul_05_1740,59.9840158866,Calib,001,test,
"[-1, -1, 1]",21,40,901,40,2017_Jul_05_1740,59.9840158866,Calib,001,test,
"[-1, -1, -1]",22,0,902,0,2017_Jul_05_1740,59.9840158866,Calib,001,test,
"[-1, -1, -0.95]",22,1,903,1,2017_Jul_05_1740,59.9840158866,Calib,001,test,
"[-1, -1, -0.9]",22,2,904,2,2017_Jul_05_1740,59.9840158866,Calib,001,test,
"[-1, -1, -0.85]",22,3,905,3,2017_Jul_05_1740,59.9840158866,Calib,001,test,
"[-1, -1, -0.8]",22,4,906,4,2017_Jul_05_1740,59.9840158866,Calib,001,test,
"[-1, -1, -0.75]",22,5,907,5,2017_Jul_05_1740,59.9840158866,Calib,001,test,
"[-1, -1, -0.7]",22,6,908,6,2017_Jul_05_1740,59.9840158866,Calib,001,test,
"[-1, -1, -0.65]",22,7,909,7,2017_Jul_05_1740,59.9840158866,Calib,001,test,
"[-1, -1, -0.6]",22,8,910,8,2017_Jul_05_1740,59.9840158866,Calib,001,test,
"[-1, -1, -0.55]",22,9,911,9,2017_Jul_05_1740,59.9840158866,Calib,001,test,
"[-1, -1, -0.5]",22,10,912,10,2017_Jul_05_1740,59.9840158866,Calib,001,test,
"[-1, -1, -0.45]",22,11,913,11,2017_Jul_05_1740,59.9840158866,Calib,001,test,
"[-1, -1, -0.4]",22,12,914,12,2017_Jul_05_1740,59.9840158866,Calib,001,test,
"[-1, -1, -0.35]",22,13,915,13,2017_Jul_05_1740,59.9840158866,Calib,001,test,
"[-1, -1, -0.3]",22,14,916,14,2017_Jul_05_1740,59.9840158866,Calib,001,test,
"[-1, -1, -0.25]",22,15,917,15,2017_Jul_05_1740,59.9840158866,Calib,001,test,
"[-1, -1, -0.2]",22,16,918,16,2017_Jul_05_1740,59.9840158866,Calib,001,test,
"[-1, -1, -0.15]",22,17,919,17,2017_Jul_05_1740,59.9840158866,Calib,001,test,
"[-1, -1, -0.1]",22,18,920,18,2017_Jul_05_1740,59.9840158866,Calib,001,test,
"[-1, -1, -0.05]",22,19,921,19,2017_Jul_05_1740,59.9840158866,Calib,001,test,
"[-1, -1, 0]",22,20,922,20,2017_Jul_05_1740,59.9840158866,Calib,001,test,
"[-1, -1, 0.05]",22,21,923,21,2017_Jul_05_1740,59.9840158866,Calib,001,test,
"[-1, -1, 0.1]",22,22,924,22,2017_Jul_05_1740,59.9840158866,Calib,001,test,
"[-1, -1, 0.15]",22,23,925,23,2017_Jul_05_1740,59.9840158866,Calib,001,test,
"[-1, -1, 0.2]",22,24,926,24,2017_Jul_05_1740,59.9840158866,Calib,001,test,
"[-1, -1, 0.25]",22,25,927,25,2017_Jul_05_1740,59.9840158866,Calib,001,test,
"[-1, -1, 0.3]",22,26,928,26,2017_Jul_05_1740,59.9840158866,Calib,001,test,
"[-1, -1, 0.35]",22,27,929,27,2017_Jul_05_1740,59.9840158866,Calib,001,test,
"[-1, -1, 0.4]",22,28,930,28,2017_Jul_05_1740,59.9840158866,Calib,001,test,
"[-1, -1, 0.45]",22,29,931,29,2017_Jul_05_1740,59.9840158866,Calib,001,test,
"[-1, -1, 0.5]",22,30,932,30,2017_Jul_05_1740,59.9840158866,Calib,001,test,
"[-1, -1, 0.55]",22,31,933,31,2017_Jul_05_1740,59.9840158866,Calib,001,test,
"[-1, -1, 0.6]",22,32,934,32,2017_Jul_05_1740,59.9840158866,Calib,001,test,
"[-1, -1, 0.65]",22,33,935,33,2017_Jul_05_1740,59.9840158866,Calib,001,test,
"[-1, -1, 0.7]",22,34,936,34,2017_Jul_05_1740,59.9840158866,Calib,001,test,
"[-1, -1, 0.75]",22,35,937,35,2017_Jul_05_1740,59.9840158866,Calib,001,test,
"[-1, -1, 0.8]",22,36,938,36,2017_Jul_05_1740,59.9840158866,Calib,001,test,
"[-1, -1, 0.85]",22,37,939,37,2017_Jul_05_1740,59.9840158866,Calib,001,test,
"[-1, -1, 0.9]",22,38,940,38,2017_Jul_05_1740,59.9840158866,Calib,001,test,
"[-1, -1, 0.95]",22,39,941,39,2017_Jul_05_1740,59.9840158866,Calib,001,test,
"[-1, -1, 1]",22,40,942,40,2017_Jul_05_1740,59.9840158866,Calib,001,test,
"[-1, -1, -1]",23,0,943,0,2017_Jul_05_1740,59.9840158866,Calib,001,test,
"[-1, -1, -0.95]",23,1,944,1,2017_Jul_05_1740,59.9840158866,Calib,001,test,
"[-1, -1, -0.9]",23,2,945,2,2017_Jul_05_1740,59.9840158866,Calib,001,test,
"[-1, -1, -0.85]",23,3,946,3,2017_Jul_05_1740,59.9840158866,Calib,001,test,
"[-1, -1, -0.8]",23,4,947,4,2017_Jul_05_1740,59.9840158866,Calib,001,test,
"[-1, -1, -0.75]",23,5,948,5,2017_Jul_05_1740,59.9840158866,Calib,001,test,
"[-1, -1, -0.7]",23,6,949,6,2017_Jul_05_1740,59.9840158866,Calib,001,test,
"[-1, -1, -0.65]",23,7,950,7,2017_Jul_05_1740,59.9840158866,Calib,001,test,
"[-1, -1, -0.6]",23,8,951,8,2017_Jul_05_1740,59.9840158866,Calib,001,test,
"[-1, -1, -0.55]",23,9,952,9,2017_Jul_05_1740,59.9840158866,Calib,001,test,
"[-1, -1, -0.5]",23,10,953,10,2017_Jul_05_1740,59.9840158866,Calib,001,test,
"[-1, -1, -0.45]",23,11,954,11,2017_Jul_05_1740,59.9840158866,Calib,001,test,
"[-1, -1, -0.4]",23,12,955,12,2017_Jul_05_1740,59.9840158866,Calib,001,test,
"[-1, -1, -0.35]",23,13,956,13,2017_Jul_05_1740,59.9840158866,Calib,001,test,
"[-1, -1, -0.3]",23,14,957,14,2017_Jul_05_1740,59.9840158866,Calib,001,test,
"[-1, -1, -0.25]",23,15,958,15,2017_Jul_05_1740,59.9840158866,Calib,001,test,
"[-1, -1, -0.2]",23,16,959,16,2017_Jul_05_1740,59.9840158866,Calib,001,test,
"[-1, -1, -0.15]",23,17,960,17,2017_Jul_05_1740,59.9840158866,Calib,001,test,
"[-1, -1, -0.1]",23,18,961,18,2017_Jul_05_1740,59.9840158866,Calib,001,test,
"[-1, -1, -0.05]",23,19,962,19,2017_Jul_05_1740,59.9840158866,Calib,001,test,
"[-1, -1, 0]",23,20,963,20,2017_Jul_05_1740,59.9840158866,Calib,001,test,
"[-1, -1, 0.05]",23,21,964,21,2017_Jul_05_1740,59.9840158866,Calib,001,test,
"[-1, -1, 0.1]",23,22,965,22,2017_Jul_05_1740,59.9840158866,Calib,001,test,
"[-1, -1, 0.15]",23,23,966,23,2017_Jul_05_1740,59.9840158866,Calib,001,test,
"[-1, -1, 0.2]",23,24,967,24,2017_Jul_05_1740,59.9840158866,Calib,001,test,
"[-1, -1, 0.25]",23,25,968,25,2017_Jul_05_1740,59.9840158866,Calib,001,test,
"[-1, -1, 0.3]",23,26,969,26,2017_Jul_05_1740,59.9840158866,Calib,001,test,
"[-1, -1, 0.35]",23,27,970,27,2017_Jul_05_1740,59.9840158866,Calib,001,test,
"[-1, -1, 0.4]",23,28,971,28,2017_Jul_05_1740,59.9840158866,Calib,001,test,
"[-1, -1, 0.45]",23,29,972,29,2017_Jul_05_1740,59.9840158866,Calib,001,test,
"[-1, -1, 0.5]",23,30,973,30,2017_Jul_05_1740,59.9840158866,Calib,001,test,
"[-1, -1, 0.55]",23,31,974,31,2017_Jul_05_1740,59.9840158866,Calib,001,test,
"[-1, -1, 0.6]",23,32,975,32,2017_Jul_05_1740,59.9840158866,Calib,001,test,
"[-1, -1, 0.65]",23,33,976,33,2017_Jul_05_1740,59.9840158866,Calib,001,test,
"[-1, -1, 0.7]",23,34,977,34,2017_Jul_05_1740,59.9840158866,Calib,001,test,
"[-1, -1, 0.75]",23,35,978,35,2017_Jul_05_1740,59.9840158866,Calib,001,test,
"[-1, -1, 0.8]",23,36,979,36,2017_Jul_05_1740,59.9840158866,Calib,001,test,
"[-1, -1, 0.85]",23,37,980,37,2017_Jul_05_1740,59.9840158866,Calib,001,test,
"[-1, -1, 0.9]",23,38,981,38,2017_Jul_05_1740,59.9840158866,Calib,001,test,
"[-1, -1, 0.95]",23,39,982,39,2017_Jul_05_1740,59.9840158866,Calib,001,test,
"[-1, -1, 1]",23,40,983,40,2017_Jul_05_1740,59.9840158866,Calib,001,test,
"[-1, -1, -1]",24,0,984,0,2017_Jul_05_1740,59.9840158866,Calib,001,test,
"[-1, -1, -0.95]",24,1,985,1,2017_Jul_05_1740,59.9840158866,Calib,001,test,
"[-1, -1, -0.9]",24,2,986,2,2017_Jul_05_1740,59.9840158866,Calib,001,test,
"[-1, -1, -0.85]",24,3,987,3,2017_Jul_05_1740,59.9840158866,Calib,001,test,
"[-1, -1, -0.8]",24,4,988,4,2017_Jul_05_1740,59.9840158866,Calib,001,test,
"[-1, -1, -0.75]",24,5,989,5,2017_Jul_05_1740,59.9840158866,Calib,001,test,
"[-1, -1, -0.7]",24,6,990,6,2017_Jul_05_1740,59.9840158866,Calib,001,test,
"[-1, -1, -0.65]",24,7,991,7,2017_Jul_05_1740,59.9840158866,Calib,001,test,
"[-1, -1, -0.6]",24,8,992,8,2017_Jul_05_1740,59.9840158866,Calib,001,test,
"[-1, -1, -0.55]",24,9,993,9,2017_Jul_05_1740,59.9840158866,Calib,001,test,
"[-1, -1, -0.5]",24,10,994,10,2017_Jul_05_1740,59.9840158866,Calib,001,test,
"[-1, -1, -0.45]",24,11,995,11,2017_Jul_05_1740,59.9840158866,Calib,001,test,
"[-1, -1, -0.4]",24,12,996,12,2017_Jul_05_1740,59.9840158866,Calib,001,test,
"[-1, -1, -0.35]",24,13,997,13,2017_Jul_05_1740,59.9840158866,Calib,001,test,
"[-1, -1, -0.3]",24,14,998,14,2017_Jul_05_1740,59.9840158866,Calib,001,test,
"[-1, -1, -0.25]",24,15,999,15,2017_Jul_05_1740,59.9840158866,Calib,001,test,
"[-1, -1, -0.2]",24,16,1000,16,2017_Jul_05_1740,59.9840158866,Calib,001,test,
"[-1, -1, -0.15]",24,17,1001,17,2017_Jul_05_1740,59.9840158866,Calib,001,test,
"[-1, -1, -0.1]",24,18,1002,18,2017_Jul_05_1740,59.9840158866,Calib,001,test,
"[-1, -1, -0.05]",24,19,1003,19,2017_Jul_05_1740,59.9840158866,Calib,001,test,
"[-1, -1, 0]",24,20,1004,20,2017_Jul_05_1740,59.9840158866,Calib,001,test,
"[-1, -1, 0.05]",24,21,1005,21,2017_Jul_05_1740,59.9840158866,Calib,001,test,
"[-1, -1, 0.1]",24,22,1006,22,2017_Jul_05_1740,59.9840158866,Calib,001,test,
"[-1, -1, 0.15]",24,23,1007,23,2017_Jul_05_1740,59.9840158866,Calib,001,test,
"[-1, -1, 0.2]",24,24,1008,24,2017_Jul_05_1740,59.9840158866,Calib,001,test,
"[-1, -1, 0.25]",24,25,1009,25,2017_Jul_05_1740,59.9840158866,Calib,001,test,
"[-1, -1, 0.3]",24,26,1010,26,2017_Jul_05_1740,59.9840158866,Calib,001,test,
"[-1, -1, 0.35]",24,27,1011,27,2017_Jul_05_1740,59.9840158866,Calib,001,test,
"[-1, -1, 0.4]",24,28,1012,28,2017_Jul_05_1740,59.9840158866,Calib,001,test,
"[-1, -1, 0.45]",24,29,1013,29,2017_Jul_05_1740,59.9840158866,Calib,001,test,
"[-1, -1, 0.5]",24,30,1014,30,2017_Jul_05_1740,59.9840158866,Calib,001,test,
"[-1, -1, 0.55]",24,31,1015,31,2017_Jul_05_1740,59.9840158866,Calib,001,test,
"[-1, -1, 0.6]",24,32,1016,32,2017_Jul_05_1740,59.9840158866,Calib,001,test,
"[-1, -1, 0.65]",24,33,1017,33,2017_Jul_05_1740,59.9840158866,Calib,001,test,
"[-1, -1, 0.7]",24,34,1018,34,2017_Jul_05_1740,59.9840158866,Calib,001,test,
"[-1, -1, 0.75]",24,35,1019,35,2017_Jul_05_1740,59.9840158866,Calib,001,test,
"[-1, -1, 0.8]",24,36,1020,36,2017_Jul_05_1740,59.9840158866,Calib,001,test,
"[-1, -1, 0.85]",24,37,1021,37,2017_Jul_05_1740,59.9840158866,Calib,001,test,
"[-1, -1, 0.9]",24,38,1022,38,2017_Jul_05_1740,59.9840158866,Calib,001,test,
"[-1, -1, 0.95]",24,39,1023,39,2017_Jul_05_1740,59.9840158866,Calib,001,test,
"[-1, -1, 1]",24,40,1024,40,2017_Jul_05_1740,59.9840158866,Calib,001,test,
"[-1, -1, -1]",25,0,1025,0,2017_Jul_05_1740,59.9840158866,Calib,001,test,
"[-1, -1, -0.95]",25,1,1026,1,2017_Jul_05_1740,59.9840158866,Calib,001,test,
"[-1, -1, -0.9]",25,2,1027,2,2017_Jul_05_1740,59.9840158866,Calib,001,test,
"[-1, -1, -0.85]",25,3,1028,3,2017_Jul_05_1740,59.9840158866,Calib,001,test,
"[-1, -1, -0.8]",25,4,1029,4,2017_Jul_05_1740,59.9840158866,Calib,001,test,
"[-1, -1, -0.75]",25,5,1030,5,2017_Jul_05_1740,59.9840158866,Calib,001,test,
"[-1, -1, -0.7]",25,6,1031,6,2017_Jul_05_1740,59.9840158866,Calib,001,test,
"[-1, -1, -0.65]",25,7,1032,7,2017_Jul_05_1740,59.9840158866,Calib,001,test,
"[-1, -1, -0.6]",25,8,1033,8,2017_Jul_05_1740,59.9840158866,Calib,001,test,
"[-1, -1, -0.55]",25,9,1034,9,2017_Jul_05_1740,59.9840158866,Calib,001,test,
"[-1, -1, -0.5]",25,10,1035,10,2017_Jul_05_1740,59.9840158866,Calib,001,test,
"[-1, -1, -0.45]",25,11,1036,11,2017_Jul_05_1740,59.9840158866,Calib,001,test,
"[-1, -1, -0.4]",25,12,1037,12,2017_Jul_05_1740,59.9840158866,Calib,001,test,
"[-1, -1, -0.35]",25,13,1038,13,2017_Jul_05_1740,59.9840158866,Calib,001,test,
"[-1, -1, -0.3]",25,14,1039,14,2017_Jul_05_1740,59.9840158866,Calib,001,test,
"[-1, -1, -0.25]",25,15,1040,15,2017_Jul_05_1740,59.9840158866,Calib,001,test,
"[-1, -1, -0.2]",25,16,1041,16,2017_Jul_05_1740,59.9840158866,Calib,001,test,
"[-1, -1, -0.15]",25,17,1042,17,2017_Jul_05_1740,59.9840158866,Calib,001,test,
"[-1, -1, -0.1]",25,18,1043,18,2017_Jul_05_1740,59.9840158866,Calib,001,test,
"[-1, -1, -0.05]",25,19,1044,19,2017_Jul_05_1740,59.9840158866,Calib,001,test,
"[-1, -1, 0]",25,20,1045,20,2017_Jul_05_1740,59.9840158866,Calib,001,test,
"[-1, -1, 0.05]",25,21,1046,21,2017_Jul_05_1740,59.9840158866,Calib,001,test,
"[-1, -1, 0.1]",25,22,1047,22,2017_Jul_05_1740,59.9840158866,Calib,001,test,
"[-1, -1, 0.15]",25,23,1048,23,2017_Jul_05_1740,59.9840158866,Calib,001,test,
"[-1, -1, 0.2]",25,24,1049,24,2017_Jul_05_1740,59.9840158866,Calib,001,test,
"[-1, -1, 0.25]",25,25,1050,25,2017_Jul_05_1740,59.9840158866,Calib,001,test,
"[-1, -1, 0.3]",25,26,1051,26,2017_Jul_05_1740,59.9840158866,Calib,001,test,
"[-1, -1, 0.35]",25,27,1052,27,2017_Jul_05_1740,59.9840158866,Calib,001,test,
"[-1, -1, 0.4]",25,28,1053,28,2017_Jul_05_1740,59.9840158866,Calib,001,test,
"[-1, -1, 0.45]",25,29,1054,29,2017_Jul_05_1740,59.9840158866,Calib,001,test,
"[-1, -1, 0.5]",25,30,1055,30,2017_Jul_05_1740,59.9840158866,Calib,001,test,
"[-1, -1, 0.55]",25,31,1056,31,2017_Jul_05_1740,59.9840158866,Calib,001,test,
"[-1, -1, 0.6]",25,32,1057,32,2017_Jul_05_1740,59.9840158866,Calib,001,test,
"[-1, -1, 0.65]",25,33,1058,33,2017_Jul_05_1740,59.9840158866,Calib,001,test,
"[-1, -1, 0.7]",25,34,1059,34,2017_Jul_05_1740,59.9840158866,Calib,001,test,
"[-1, -1, 0.75]",25,35,1060,35,2017_Jul_05_1740,59.9840158866,Calib,001,test,
"[-1, -1, 0.8]",25,36,1061,36,2017_Jul_05_1740,59.9840158866,Calib,001,test,
"[-1, -1, 0.85]",25,37,1062,37,2017_Jul_05_1740,59.9840158866,Calib,001,test,
"[-1, -1, 0.9]",25,38,1063,38,2017_Jul_05_1740,59.9840158866,Calib,001,test,
"[-1, -1, 0.95]",25,39,1064,39,2017_Jul_05_1740,59.9840158866,Calib,001,test,
"[-1, -1, 1]",25,40,1065,40,2017_Jul_05_1740,59.9840158866,Calib,001,test,
"[-1, -1, -1]",26,0,1066,0,2017_Jul_05_1740,59.9840158866,Calib,001,test,
"[-1, -1, -0.95]",26,1,1067,1,2017_Jul_05_1740,59.9840158866,Calib,001,test,
"[-1, -1, -0.9]",26,2,1068,2,2017_Jul_05_1740,59.9840158866,Calib,001,test,
"[-1, -1, -0.85]",26,3,1069,3,2017_Jul_05_1740,59.9840158866,Calib,001,test,
"[-1, -1, -0.8]",26,4,1070,4,2017_Jul_05_1740,59.9840158866,Calib,001,test,
"[-1, -1, -0.75]",26,5,1071,5,2017_Jul_05_1740,59.9840158866,Calib,001,test,
"[-1, -1, -0.7]",26,6,1072,6,2017_Jul_05_1740,59.9840158866,Calib,001,test,
"[-1, -1, -0.65]",26,7,1073,7,2017_Jul_05_1740,59.9840158866,Calib,001,test,
"[-1, -1, -0.6]",26,8,1074,8,2017_Jul_05_1740,59.9840158866,Calib,001,test,
"[-1, -1, -0.55]",26,9,1075,9,2017_Jul_05_1740,59.9840158866,Calib,001,test,
"[-1, -1, -0.5]",26,10,1076,10,2017_Jul_05_1740,59.9840158866,Calib,001,test,
"[-1, -1, -0.45]",26,11,1077,11,2017_Jul_05_1740,59.9840158866,Calib,001,test,
"[-1, -1, -0.4]",26,12,1078,12,2017_Jul_05_1740,59.9840158866,Calib,001,test,
"[-1, -1, -0.35]",26,13,1079,13,2017_Jul_05_1740,59.9840158866,Calib,001,test,
"[-1, -1, -0.3]",26,14,1080,14,2017_Jul_05_1740,59.9840158866,Calib,001,test,
"[-1, -1, -0.25]",26,15,1081,15,2017_Jul_05_1740,59.9840158866,Calib,001,test,
"[-1, -1, -0.2]",26,16,1082,16,2017_Jul_05_1740,59.9840158866,Calib,001,test,
"[-1, -1, -0.15]",26,17,1083,17,2017_Jul_05_1740,59.9840158866,Calib,001,test,
"[-1, -1, -0.1]",26,18,1084,18,2017_Jul_05_1740,59.9840158866,Calib,001,test,
"[-1, -1, -0.05]",26,19,1085,19,2017_Jul_05_1740,59.9840158866,Calib,001,test,
"[-1, -1, 0]",26,20,1086,20,2017_Jul_05_1740,59.9840158866,Calib,001,test,
"[-1, -1, 0.05]",26,21,1087,21,2017_Jul_05_1740,59.9840158866,Calib,001,test,
"[-1, -1, 0.1]",26,22,1088,22,2017_Jul_05_1740,59.9840158866,Calib,001,test,
"[-1, -1, 0.15]",26,23,1089,23,2017_Jul_05_1740,59.9840158866,Calib,001,test,
"[-1, -1, 0.2]",26,24,1090,24,2017_Jul_05_1740,59.9840158866,Calib,001,test,
"[-1, -1, 0.25]",26,25,1091,25,2017_Jul_05_1740,59.9840158866,Calib,001,test,
"[-1, -1, 0.3]",26,26,1092,26,2017_Jul_05_1740,59.9840158866,Calib,001,test,
"[-1, -1, 0.35]",26,27,1093,27,2017_Jul_05_1740,59.9840158866,Calib,001,test,
"[-1, -1, 0.4]",26,28,1094,28,2017_Jul_05_1740,59.9840158866,Calib,001,test,
"[-1, -1, 0.45]",26,29,1095,29,2017_Jul_05_1740,59.9840158866,Calib,001,test,
"[-1, -1, 0.5]",26,30,1096,30,2017_Jul_05_1740,59.9840158866,Calib,001,test,
"[-1, -1, 0.55]",26,31,1097,31,2017_Jul_05_1740,59.9840158866,Calib,001,test,
"[-1, -1, 0.6]",26,32,1098,32,2017_Jul_05_1740,59.9840158866,Calib,001,test,
"[-1, -1, 0.65]",26,33,1099,33,2017_Jul_05_1740,59.9840158866,Calib,001,test,
"[-1, -1, 0.7]",26,34,1100,34,2017_Jul_05_1740,59.9840158866,Calib,001,test,
"[-1, -1, 0.75]",26,35,1101,35,2017_Jul_05_1740,59.9840158866,Calib,001,test,
"[-1, -1, 0.8]",26,36,1102,36,2017_Jul_05_1740,59.9840158866,Calib,001,test,
"[-1, -1, 0.85]",26,37,1103,37,2017_Jul_05_1740,59.9840158866,Calib,001,test,
"[-1, -1, 0.9]",26,38,1104,38,2017_Jul_05_1740,59.9840158866,Calib,001,test,
"[-1, -1, 0.95]",26,39,1105,39,2017_Jul_05_1740,59.9840158866,Calib,001,test,
"[-1, -1, 1]",26,40,1106,40,2017_Jul_05_1740,59.9840158866,Calib,001,test,
"[-1, -1, -1]",27,0,1107,0,2017_Jul_05_1740,59.9840158866,Calib,001,test,
"[-1, -1, -0.95]",27,1,1108,1,2017_Jul_05_1740,59.9840158866,Calib,001,test,
"[-1, -1, -0.9]",27,2,1109,2,2017_Jul_05_1740,59.9840158866,Calib,001,test,
"[-1, -1, -0.85]",27,3,1110,3,2017_Jul_05_1740,59.9840158866,Calib,001,test,
"[-1, -1, -0.8]",27,4,1111,4,2017_Jul_05_1740,59.9840158866,Calib,001,test,
"[-1, -1, -0.75]",27,5,1112,5,2017_Jul_05_1740,59.9840158866,Calib,001,test,
"[-1, -1, -0.7]",27,6,1113,6,2017_Jul_05_1740,59.9840158866,Calib,001,test,
"[-1, -1, -0.65]",27,7,1114,7,2017_Jul_05_1740,59.9840158866,Calib,001,test,
"[-1, -1, -0.6]",27,8,1115,8,2017_Jul_05_1740,59.9840158866,Calib,001,test,
"[-1, -1, -0.55]",27,9,1116,9,2017_Jul_05_1740,59.9840158866,Calib,001,test,
"[-1, -1, -0.5]",27,10,1117,10,2017_Jul_05_1740,59.9840158866,Calib,001,test,
"[-1, -1, -0.45]",27,11,1118,11,2017_Jul_05_1740,59.9840158866,Calib,001,test,
"[-1, -1, -0.4]",27,12,1119,12,2017_Jul_05_1740,59.9840158866,Calib,001,test,
"[-1, -1, -0.35]",27,13,1120,13,2017_Jul_05_1740,59.9840158866,Calib,001,test,
"[-1, -1, -0.3]",27,14,1121,14,2017_Jul_05_1740,59.9840158866,Calib,001,test,
"[-1, -1, -0.25]",27,15,1122,15,2017_Jul_05_1740,59.9840158866,Calib,001,test,
"[-1, -1, -0.2]",27,16,1123,16,2017_Jul_05_1740,59.9840158866,Calib,001,test,
"[-1, -1, -0.15]",27,17,1124,17,2017_Jul_05_1740,59.9840158866,Calib,001,test,
"[-1, -1, -0.1]",27,18,1125,18,2017_Jul_05_1740,59.9840158866,Calib,001,test,
"[-1, -1, -0.05]",27,19,1126,19,2017_Jul_05_1740,59.9840158866,Calib,001,test,
"[-1, -1, 0]",27,20,1127,20,2017_Jul_05_1740,59.9840158866,Calib,001,test,
"[-1, -1, 0.05]",27,21,1128,21,2017_Jul_05_1740,59.9840158866,Calib,001,test,
"[-1, -1, 0.1]",27,22,1129,22,2017_Jul_05_1740,59.9840158866,Calib,001,test,
"[-1, -1, 0.15]",27,23,1130,23,2017_Jul_05_1740,59.9840158866,Calib,001,test,
"[-1, -1, 0.2]",27,24,1131,24,2017_Jul_05_1740,59.9840158866,Calib,001,test,
"[-1, -1, 0.25]",27,25,1132,25,2017_Jul_05_1740,59.9840158866,Calib,001,test,
"[-1, -1, 0.3]",27,26,1133,26,2017_Jul_05_1740,59.9840158866,Calib,001,test,
"[-1, -1, 0.35]",27,27,1134,27,2017_Jul_05_1740,59.9840158866,Calib,001,test,
"[-1, -1, 0.4]",27,28,1135,28,2017_Jul_05_1740,59.9840158866,Calib,001,test,
"[-1, -1, 0.45]",27,29,1136,29,2017_Jul_05_1740,59.9840158866,Calib,001,test,
"[-1, -1, 0.5]",27,30,1137,30,2017_Jul_05_1740,59.9840158866,Calib,001,test,
"[-1, -1, 0.55]",27,31,1138,31,2017_Jul_05_1740,59.9840158866,Calib,001,test,
"[-1, -1, 0.6]",27,32,1139,32,2017_Jul_05_1740,59.9840158866,Calib,001,test,
"[-1, -1, 0.65]",27,33,1140,33,2017_Jul_05_1740,59.9840158866,Calib,001,test,
"[-1, -1, 0.7]",27,34,1141,34,2017_Jul_05_1740,59.9840158866,Calib,001,test,
"[-1, -1, 0.75]",27,35,1142,35,2017_Jul_05_1740,59.9840158866,Calib,001,test,
"[-1, -1, 0.8]",27,36,1143,36,2017_Jul_05_1740,59.9840158866,Calib,001,test,
"[-1, -1, 0.85]",27,37,1144,37,2017_Jul_05_1740,59.9840158866,Calib,001,test,
"[-1, -1, 0.9]",27,38,1145,38,2017_Jul_05_1740,59.9840158866,Calib,001,test,
"[-1, -1, 0.95]",27,39,1146,39,2017_Jul_05_1740,59.9840158866,Calib,001,test,
"[-1, -1, 1]",27,40,1147,40,2017_Jul_05_1740,59.9840158866,Calib,001,test,
"[-1, -1, -1]",28,0,1148,0,2017_Jul_05_1740,59.9840158866,Calib,001,test,
"[-1, -1, -0.95]",28,1,1149,1,2017_Jul_05_1740,59.9840158866,Calib,001,test,
"[-1, -1, -0.9]",28,2,1150,2,2017_Jul_05_1740,59.9840158866,Calib,001,test,
"[-1, -1, -0.85]",28,3,1151,3,2017_Jul_05_1740,59.9840158866,Calib,001,test,
"[-1, -1, -0.8]",28,4,1152,4,2017_Jul_05_1740,59.9840158866,Calib,001,test,
"[-1, -1, -0.75]",28,5,1153,5,2017_Jul_05_1740,59.9840158866,Calib,001,test,
"[-1, -1, -0.7]",28,6,1154,6,2017_Jul_05_1740,59.9840158866,Calib,001,test,
"[-1, -1, -0.65]",28,7,1155,7,2017_Jul_05_1740,59.9840158866,Calib,001,test,
"[-1, -1, -0.6]",28,8,1156,8,2017_Jul_05_1740,59.9840158866,Calib,001,test,
"[-1, -1, -0.55]",28,9,1157,9,2017_Jul_05_1740,59.9840158866,Calib,001,test,
"[-1, -1, -0.5]",28,10,1158,10,2017_Jul_05_1740,59.9840158866,Calib,001,test,
"[-1, -1, -0.45]",28,11,1159,11,2017_Jul_05_1740,59.9840158866,Calib,001,test,
"[-1, -1, -0.4]",28,12,1160,12,2017_Jul_05_1740,59.9840158866,Calib,001,test,
"[-1, -1, -0.35]",28,13,1161,13,2017_Jul_05_1740,59.9840158866,Calib,001,test,
"[-1, -1, -0.3]",28,14,1162,14,2017_Jul_05_1740,59.9840158866,Calib,001,test,
"[-1, -1, -0.25]",28,15,1163,15,2017_Jul_05_1740,59.9840158866,Calib,001,test,
"[-1, -1, -0.2]",28,16,1164,16,2017_Jul_05_1740,59.9840158866,Calib,001,test,
"[-1, -1, -0.15]",28,17,1165,17,2017_Jul_05_1740,59.9840158866,Calib,001,test,
"[-1, -1, -0.1]",28,18,1166,18,2017_Jul_05_1740,59.9840158866,Calib,001,test,
"[-1, -1, -0.05]",28,19,1167,19,2017_Jul_05_1740,59.9840158866,Calib,001,test,
"[-1, -1, 0]",28,20,1168,20,2017_Jul_05_1740,59.9840158866,Calib,001,test,
"[-1, -1, 0.05]",28,21,1169,21,2017_Jul_05_1740,59.9840158866,Calib,001,test,
"[-1, -1, 0.1]",28,22,1170,22,2017_Jul_05_1740,59.9840158866,Calib,001,test,
"[-1, -1, 0.15]",28,23,1171,23,2017_Jul_05_1740,59.9840158866,Calib,001,test,
"[-1, -1, 0.2]",28,24,1172,24,2017_Jul_05_1740,59.9840158866,Calib,001,test,
"[-1, -1, 0.25]",28,25,1173,25,2017_Jul_05_1740,59.9840158866,Calib,001,test,
"[-1, -1, 0.3]",28,26,1174,26,2017_Jul_05_1740,59.9840158866,Calib,001,test,
"[-1, -1, 0.35]",28,27,1175,27,2017_Jul_05_1740,59.9840158866,Calib,001,test,
"[-1, -1, 0.4]",28,28,1176,28,2017_Jul_05_1740,59.9840158866,Calib,001,test,
"[-1, -1, 0.45]",28,29,1177,29,2017_Jul_05_1740,59.9840158866,Calib,001,test,
"[-1, -1, 0.5]",28,30,1178,30,2017_Jul_05_1740,59.9840158866,Calib,001,test,
"[-1, -1, 0.55]",28,31,1179,31,2017_Jul_05_1740,59.9840158866,Calib,001,test,
"[-1, -1, 0.6]",28,32,1180,32,2017_Jul_05_1740,59.9840158866,Calib,001,test,
"[-1, -1, 0.65]",28,33,1181,33,2017_Jul_05_1740,59.9840158866,Calib,001,test,
"[-1, -1, 0.7]",28,34,1182,34,2017_Jul_05_1740,59.9840158866,Calib,001,test,
"[-1, -1, 0.75]",28,35,1183,35,2017_Jul_05_1740,59.9840158866,Calib,001,test,
"[-1, -1, 0.8]",28,36,1184,36,2017_Jul_05_1740,59.9840158866,Calib,001,test,
"[-1, -1, 0.85]",28,37,1185,37,2017_Jul_05_1740,59.9840158866,Calib,001,test,
"[-1, -1, 0.9]",28,38,1186,38,2017_Jul_05_1740,59.9840158866,Calib,001,test,
"[-1, -1, 0.95]",28,39,1187,39,2017_Jul_05_1740,59.9840158866,Calib,001,test,
"[-1, -1, 1]",28,40,1188,40,2017_Jul_05_1740,59.9840158866,Calib,001,test,
"[-1, -1, -1]",29,0,1189,0,2017_Jul_05_1740,59.9840158866,Calib,001,test,
"[-1, -1, -0.95]",29,1,1190,1,2017_Jul_05_1740,59.9840158866,Calib,001,test,
"[-1, -1, -0.9]",29,2,1191,2,2017_Jul_05_1740,59.9840158866,Calib,001,test,
"[-1, -1, -0.85]",29,3,1192,3,2017_Jul_05_1740,59.9840158866,Calib,001,test,
"[-1, -1, -0.8]",29,4,1193,4,2017_Jul_05_1740,59.9840158866,Calib,001,test,
"[-1, -1, -0.75]",29,5,1194,5,2017_Jul_05_1740,59.9840158866,Calib,001,test,
"[-1, -1, -0.7]",29,6,1195,6,2017_Jul_05_1740,59.9840158866,Calib,001,test,
"[-1, -1, -0.65]",29,7,1196,7,2017_Jul_05_1740,59.9840158866,Calib,001,test,
"[-1, -1, -0.6]",29,8,1197,8,2017_Jul_05_1740,59.9840158866,Calib,001,test,
"[-1, -1, -0.55]",29,9,1198,9,2017_Jul_05_1740,59.9840158866,Calib,001,test,
"[-1, -1, -0.5]",29,10,1199,10,2017_Jul_05_1740,59.9840158866,Calib,001,test,
"[-1, -1, -0.45]",29,11,1200,11,2017_Jul_05_1740,59.9840158866,Calib,001,test,
"[-1, -1, -0.4]",29,12,1201,12,2017_Jul_05_1740,59.9840158866,Calib,001,test,
"[-1, -1, -0.35]",29,13,1202,13,2017_Jul_05_1740,59.9840158866,Calib,001,test,
"[-1, -1, -0.3]",29,14,1203,14,2017_Jul_05_1740,59.9840158866,Calib,001,test,
"[-1, -1, -0.25]",29,15,1204,15,2017_Jul_05_1740,59.9840158866,Calib,001,test,
"[-1, -1, -0.2]",29,16,1205,16,2017_Jul_05_1740,59.9840158866,Calib,001,test,
"[-1, -1, -0.15]",29,17,1206,17,2017_Jul_05_1740,59.9840158866,Calib,001,test,
"[-1, -1, -0.1]",29,18,1207,18,2017_Jul_05_1740,59.9840158866,Calib,001,test,
"[-1, -1, -0.05]",29,19,1208,19,2017_Jul_05_1740,59.9840158866,Calib,001,test,
"[-1, -1, 0]",29,20,1209,20,2017_Jul_05_1740,59.9840158866,Calib,001,test,
"[-1, -1, 0.05]",29,21,1210,21,2017_Jul_05_1740,59.9840158866,Calib,001,test,
"[-1, -1, 0.1]",29,22,1211,22,2017_Jul_05_1740,59.9840158866,Calib,001,test,
"[-1, -1, 0.15]",29,23,1212,23,2017_Jul_05_1740,59.9840158866,Calib,001,test,
"[-1, -1, 0.2]",29,24,1213,24,2017_Jul_05_1740,59.9840158866,Calib,001,test,
"[-1, -1, 0.25]",29,25,1214,25,2017_Jul_05_1740,59.9840158866,Calib,001,test,
"[-1, -1, 0.3]",29,26,1215,26,2017_Jul_05_1740,59.9840158866,Calib,001,test,
"[-1, -1, 0.35]",29,27,1216,27,2017_Jul_05_1740,59.9840158866,Calib,001,test,
"[-1, -1, 0.4]",29,28,1217,28,2017_Jul_05_1740,59.9840158866,Calib,001,test,
"[-1, -1, 0.45]",29,29,1218,29,2017_Jul_05_1740,59.9840158866,Calib,001,test,
"[-1, -1, 0.5]",29,30,1219,30,2017_Jul_05_1740,59.9840158866,Calib,001,test,
"[-1, -1, 0.55]",29,31,1220,31,2017_Jul_05_1740,59.9840158866,Calib,001,test,
"[-1, -1, 0.6]",29,32,1221,32,2017_Jul_05_1740,59.9840158866,Calib,001,test,
"[-1, -1, 0.65]",29,33,1222,33,2017_Jul_05_1740,59.9840158866,Calib,001,test,
"[-1, -1, 0.7]",29,34,1223,34,2017_Jul_05_1740,59.9840158866,Calib,001,test,
"[-1, -1, 0.75]",29,35,1224,35,2017_Jul_05_1740,59.9840158866,Calib,001,test,
"[-1, -1, 0.8]",29,36,1225,36,2017_Jul_05_1740,59.9840158866,Calib,001,test,
"[-1, -1, 0.85]",29,37,1226,37,2017_Jul_05_1740,59.9840158866,Calib,001,test,
"[-1, -1, 0.9]",29,38,1227,38,2017_Jul_05_1740,59.9840158866,Calib,001,test,
"[-1, -1, 0.95]",29,39,1228,39,2017_Jul_05_1740,59.9840158866,Calib,001,test,
"[-1, -1, 1]",29,40,1229,40,2017_Jul_05_1740,59.9840158866,Calib,001,test,
